{
	"resourceType": "Bundle",
	"id": "f1ae900a-29a6-4181-af67-6f6c9d0cb430",
	"meta": {
		"profile": [
			"http://hl7.org/fhir/us/ph-library/StructureDefinition/us-ph-content-bundle"
		]
	},
	"type": "collection",
	"entry": [
		{
			"fullUrl": "http://example.org/Patient/94138efb-e159-447f-8728-d6c26e952c5a",
			"resource": {
				"resourceType": "Patient",
				"id": "94138efb-e159-447f-8728-d6c26e952c5a",
				"meta": {
					"profile": [
						"http://hl7.org/fhir/us/ph-library/StructureDefinition/us-ph-patient"
					]
				},
				"text": {
					"status": "generated",
					"div": "<div xmlns=\"http://www.w3.org/1999/xhtml\">This is a simple narrative with only plain text</div>"
				},
				"extension": [
					{
						"extension": [
							{
								"url": "ombCategory",
								"valueCoding": {
									"system": "urn:oid:2.16.840.1.113883.6.238",
									"code": "2106-3",
									"display": "White"
								}
							},
							{
								"url": "text",
								"valueString": "White"
							}
						],
						"url": "http://hl7.org/fhir/us/core/StructureDefinition/us-core-race"
					},
					{
						"extension": [
							{
								"url": "ombCategory",
								"valueCoding": {
									"system": "urn:oid:2.16.840.1.113883.6.238",
									"code": "2135-2",
									"display": "Hispanic or Latino"
								}
							},
							{
								"url": "text",
								"valueString": "Hispanic or Latino"
							}
						],
						"url": "http://hl7.org/fhir/us/core/StructureDefinition/us-core-ethnicity"
					}
				],
				"identifier": [
					{
						"use": "usual",
						"type": {
							"coding": [
								{
									"system": "http://terminology.hl7.org/CodeSystem/v2-0203",
									"code": "MR",
									"display": "Medical Record Number"
								}
							],
							"text": "Medical Record Number"
						},
						"system": "http://hospital.smarthealthit.org",
						"value": "540697"
					}
				],
				"name": [
					{
						"use": "official",
						"family": "Agusto",
						"given": [
							"Samantha",
							"L"
						]
					}
				],
				"telecom": [
					{
						"system": "phone",
						"value": "517-425-1399",
						"use": "home"
					}
				],
				"gender": "female",
				"birthDate": "2001-02-20",
				"deceasedBoolean": false,
				"address": [
					{
						"use": "home",
						"line": [
							"22 Jump Street"
						],
						"city": "Springfield",
						"state": "GA",
						"country": "US"
					}
				],
				"communication": [
					{
						"language": {
							"coding": [
								{
									"system": "urn:ietf:bcp:47",
									"code": "en",
									"display": "English"
								}
							]
						}
					}
				]
			}
		},
		{
			"fullUrl": "http://example.org/Observation/db091f9e-d35c-4f7f-b8e1-1a3193746771",
			"resource": {
				"resourceType": "Observation",
				"id": "db091f9e-d35c-4f7f-b8e1-1a3193746771",
				"meta": {
					"profile": [
						"http://hl7.org/fhir/us/core/StructureDefinition/us-core-simple-observation"
					]
				},
				"text": {
					"status": "generated",
					"div": "<div xmlns=\"http://www.w3.org/1999/xhtml\">This is a simple narrative with only plain text</div>"
				},
				"status": "final",
				"category": [
					{
						"coding": [
							{
								"system": "http://terminology.hl7.org/CodeSystem/observation-category",
								"code": "social-history",
								"display": "Social History"
							}
						]
					}
				],
				"code": {
					"coding": [
						{
							"system": "http://loinc.org",
							"code": "85736-7",
							"display": "Number of sexual partners in last 12 months"
						}
					],
					"text": "Number of sexual partners in last 12 months"
				},
				"subject": {
					"reference": "Patient/94138efb-e159-447f-8728-d6c26e952c5a"
				},
				"effectiveDateTime": "2024-09-03T03:55:27.854200+00:00",
				"performer": [
					{
						"reference": "Practitioner/f0ae2328-232f-414b-bc39-b0eb4db8e4a5",
						"display": "Practitioner"
					}
				],
				"valueCodeableConcept": {
					"coding": [
						{
							"system": "http://snomed.info/sct",
							"code": "228460004",
							"display": "Multiple current sexual partners (finding)"
						}
					],
					"text": "Multiple current sexual partners (finding)"
				}
			}
		},
		{
			"fullUrl": "http://example.org/Practitioner/f0ae2328-232f-414b-bc39-b0eb4db8e4a5",
			"resource": {
				"resourceType": "Practitioner",
				"id": "f0ae2328-232f-414b-bc39-b0eb4db8e4a5",
				"meta": {
					"profile": [
						"http://hl7.org/fhir/us/core/StructureDefinition/us-core-practitioner"
					]
				},
				"text": {
					"status": "generated",
					"div": "<div xmlns=\"http://www.w3.org/1999/xhtml\">This is a simple narrative with only plain text</div>"
				},
				"identifier": [
					{
						"system": "http://hl7.org/fhir/sid/us-npi",
						"value": "8272424754"
					}
				],
				"name": [
					{
						"use": "official",
						"family": "Rebel",
						"given": [
							"Lucy"
						]
					}
				]
			}
		},
		{
			"fullUrl": "http://example.org/Organization/924902a4-2545-4bcf-ae41-24ba4eccc370",
			"resource": {
				"resourceType": "Organization",
				"id": "924902a4-2545-4bcf-ae41-24ba4eccc370",
				"meta": {
					"profile": [
						"http://hl7.org/fhir/us/ph-library/StructureDefinition/us-ph-organization"
					]
				},
				"text": {
					"status": "generated",
					"div": "<div xmlns=\"http://www.w3.org/1999/xhtml\">This is a simple narrative with only plain text</div>"
				},
				"active": true,
				"name": "Hospital PY",
				"telecom": [
					{
						"system": "phone",
						"value": "(+1) 734-677-7777"
					},
					{
						"system": "phone",
						"value": "(+1) 734-677-7777"
					}
				],
				"address": [
					{
						"use": "work",
						"line": [
							"4444 Chipotle Crescent"
						],
						"state": "GA",
						"country": "US"
					}
				]
			}
		},
		{
			"fullUrl": "http://example.org/Encounter/78f83be9-33e3-447f-a171-ba1b2cba8af6",
			"resource": {
				"resourceType": "Encounter",
				"id": "78f83be9-33e3-447f-a171-ba1b2cba8af6",
				"meta": {
					"profile": [
						"http://hl7.org/fhir/us/ph-library/StructureDefinition/us-ph-encounter"
					]
				},
				"text": {
					"status": "generated",
					"div": "<div xmlns=\"http://www.w3.org/1999/xhtml\">This is a simple narrative with only plain text</div>"
				},
				"status": "finished",
				"class": {
					"system": "http://terminology.hl7.org/CodeSystem/v3-ActCode",
					"code": "AMB",
					"display": "ambulatory"
				},
				"type": [
					{
						"coding": [
							{
								"system": "http://www.ama-assn.org/go/cpt",
								"code": "99213",
								"display": "Office or other outpatient visit for the evaluation and management of an established patient, which requires a medically appropriate history and/or examination and low level of medical decision making. When using time for code selection, 20-29 minutes of total time is spent on the date of the encounter."
							}
						],
						"text": "Office Visit"
					}
				],
				"subject": {
					"reference": "Patient/94138efb-e159-447f-8728-d6c26e952c5a"
				},
				"participant": [
					{
						"individual": {
							"reference": "Practitioner/f0ae2328-232f-414b-bc39-b0eb4db8e4a5"
						}
					}
				],
				"period": {
					"start": "2024-06-24T13:23:43-04:00",
					"end": "2024-06-24T17:23:43-04:00"
				},
				"location": [
					{
						"location": {
							"reference": "Location/d1636409-8269-4758-9130-20daf48d02f1",
							"display": "Clinic Bldg A, Salem Medical Center, 4444 Healthcare Drive, Ann Arbor MI, 99998"
						}
					}
				],
				"serviceProvider": {
					"reference": "Organization/924902a4-2545-4bcf-ae41-24ba4eccc370"
				}
			}
		},
		{
			"fullUrl": "http://example.org/Location/d1636409-8269-4758-9130-20daf48d02f1",
			"resource": {
				"resourceType": "Location",
				"id": "d1636409-8269-4758-9130-20daf48d02f1",
				"meta": {
					"profile": [
						"http://hl7.org/fhir/us/ph-library/StructureDefinition/us-ph-location"
					]
				},
				"text": {
					"status": "generated",
					"div": "<div xmlns=\"http://www.w3.org/1999/xhtml\">This is a simple narrative with only plain text</div>"
				},
				"identifier": [
					{
						"system": "http://hl7.org/fhir/sid/us-npi",
						"value": "1063494177"
					}
				],
				"status": "active",
				"name": "Clinic Bldg A, Salem Medical Center",
				"type": [
					{
						"coding": [
							{
								"system": "http://terminology.hl7.org/CodeSystem/v3-RoleCode",
								"code": "HOSP",
								"display": "Hospital"
							}
						]
					}
				],
				"telecom": [
					{
						"system": "phone",
						"value": "(+1) (555)555-3001"
					},
					{
						"system": "fax",
						"value": "(+1) (555)555-3002"
					},
					{
						"system": "email",
						"value": "mail@smc.org"
					}
				],
				"address": {
					"line": [
						"Clinic Bldg A",
						"4444 Healthcare Drive"
					],
					"city": "Ann Arbor",
					"state": "MI",
					"postalCode": "99999"
				},
				"managingOrganization": {
					"reference": "Organization/66f94852-1426-49cc-9bc7-6278610d0c7a"
				}
			}
		},
		{
			"fullUrl": "http://example.org/Condition/dcf19fa3-7df9-4aeb-99b4-b3bb7d2374b8",
			"resource": {
				"resourceType": "Condition",
				"id": "dcf19fa3-7df9-4aeb-99b4-b3bb7d2374b8",
				"meta": {
					"profile": [
						"http://hl7.org/fhir/us/ph-library/StructureDefinition/us-ph-condition-encounter-diagnosis"
					]
				},
				"text": {
					"status": "generated",
					"div": "<div xmlns=\"http://www.w3.org/1999/xhtml\">This is a simple narrative with only plain text</div>"
				},
				"clinicalStatus": {
					"coding": [
						{
							"system": "http://terminology.hl7.org/CodeSystem/condition-clinical",
							"code": "active",
							"display": "Active"
						}
					]
				},
				"verificationStatus": {
					"coding": [
						{
							"system": "http://terminology.hl7.org/CodeSystem/condition-ver-status",
							"code": "confirmed",
							"display": "Confirmed"
						}
					]
				},
				"category": [
					{
						"coding": [
							{
								"system": "http://terminology.hl7.org/CodeSystem/condition-category",
								"code": "encounter-diagnosis",
								"display": "Encounter Diagnosis"
							}
						]
					}
				],
				"code": {
					"coding": [
						{
							"system": "http://hl7.org/fhir/sid/icd-10-cm",
							"code": "A51.0",
							"display": "Primary genital syphilis"
						}
					],
					"text": "Primary genital syphilis"
				},
				"subject": {
					"reference": "Patient/94138efb-e159-447f-8728-d6c26e952c5a"
				},
				"encounter": {
					"reference": "Encounter/78f83be9-33e3-447f-a171-ba1b2cba8af6"
				},
				"recordedDate": "2024-06-24T15:40:00-04:00"
			}
		},
		{
			"fullUrl": "http://example.org/MedicationRequest/b2a5cc1c-0a83-4107-a244-7ce79aa4db4d",
			"resource": {
				"resourceType": "MedicationRequest",
				"id": "b2a5cc1c-0a83-4107-a244-7ce79aa4db4d",
				"meta": {
					"profile": [
						"http://hl7.org/fhir/us/core/StructureDefinition/us-core-medicationrequest"
					]
				},
				"text": {
					"status": "generated",
					"div": "<div xmlns=\"http://www.w3.org/1999/xhtml\">This is a simple narrative with only plain text</div>"
				},
				"status": "completed",
				"intent": "order",
				"medicationCodeableConcept": {
					"coding": [
						{
							"system": "http://www.nlm.nih.gov/research/umls/rxnorm",
							"code": "393512",
							"display": "amoxicillin 800 MG"
						}
					],
					"text": "amoxicillin 800 MG"
				},
				"subject": {
					"reference": "Patient/94138efb-e159-447f-8728-d6c26e952c5a"
				},
				"encounter": {
					"reference": "Encounter/78f83be9-33e3-447f-a171-ba1b2cba8af6"
				},
				"authoredOn": "2024-06-24T19:40:00-04:00",
				"requester": {
					"reference": "Practitioner/f0ae2328-232f-414b-bc39-b0eb4db8e4a5"
				},
				"reasonCode": [
					{
						"coding": [
							{
								"system": "http://hl7.org/fhir/sid/icd-10-cm",
								"code": "A51.0",
								"display": "Primary genital syphilis"
							}
						],
						"text": "Primary genital syphilis"
					},
					{
						"coding": [
							{
								"system": "http://snomed.info/sct",
								"code": "186847001",
								"display": "Primary genital syphilis"
							}
						],
						"text": "Primary genital syphilis"
					}
				],
				"reasonReference": [
					{
						"reference": "Condition/dcf19fa3-7df9-4aeb-99b4-b3bb7d2374b8"
					}
				],
				"dosageInstruction": [
					{
						"text": "Oral 800MG/1 Tablet every 12 hours for 10 days"
					}
				]
			}
		},
		{
			"fullUrl": "http://example.org/Specimen/85efd6e0-8783-41a1-8504-174e9694835c",
			"resource": {
				"resourceType": "Specimen",
				"id": "85efd6e0-8783-41a1-8504-174e9694835c",
				"meta": {
					"profile": [
						"http://hl7.org/fhir/us/ph-library/StructureDefinition/us-ph-specimen"
					]
				},
				"text": {
					"status": "generated",
					"div": "<div xmlns=\"http://www.w3.org/1999/xhtml\">This is a simple narrative with only plain text</div>"
				},
				"type": {
					"coding": [
						{
							"system": "http://terminology.hl7.org/CodeSystem/v2-0487",
							"code": "GENV",
							"display": "Genital vaginal"
						}
					]
				},
				"subject": {
					"reference": "Patient/94138efb-e159-447f-8728-d6c26e952c5a"
				}
			}
		},
		{
			"fullUrl": "http://example.org/Observation/e3357d04-e100-479a-a8d1-d1089a8c8d29",
			"resource": {
				"resourceType": "Observation",
				"id": "e3357d04-e100-479a-a8d1-d1089a8c8d29",
				"meta": {
					"profile": [
						"http://hl7.org/fhir/us/ph-library/StructureDefinition/us-ph-lab-result-observation"
					]
				},
				"text": {
					"status": "generated",
					"div": "<div xmlns=\"http://www.w3.org/1999/xhtml\">This is a simple narrative with only plain text</div>"
				},
				"status": "final",
				"category": [
					{
						"coding": [
							{
								"system": "http://terminology.hl7.org/CodeSystem/observation-category",
								"code": "laboratory",
								"display": "Laboratory"
							}
						]
					}
				],
				"code": {
					"coding": [
						{
							"system": "http://loinc.org",
							"code": "91846-6",
							"display": "Treponema pallidum DNA [Presence] in Genital specimen by NAA with probe detection"
						}
					]
				},
				"subject": {
					"reference": "Patient/94138efb-e159-447f-8728-d6c26e952c5a"
				},
				"encounter": {
					"reference": "Encounter/78f83be9-33e3-447f-a171-ba1b2cba8af6"
				},
				"effectiveDateTime": "2024-06-12",
				"performer": [
					{
						"reference": "Practitioner/f0ae2328-232f-414b-bc39-b0eb4db8e4a5",
						"display": "Practitioner"
					}
				],
				"valueCodeableConcept": {
					"coding": [
						{
							"system": "http://snomed.info/sct",
							"code": "260373001",
							"display": "Detected"
						}
					]
				},
				"interpretation": [
					{
						"coding": [
							{
								"system": "http://terminology.hl7.org/CodeSystem/v3-ObservationInterpretation",
								"code": "POS",
								"display": "Positive"
							}
						]
					}
				],
				"specimen": {
					"reference": "Specimen/85efd6e0-8783-41a1-8504-174e9694835c"
				}
			}
		},
		{
			"fullUrl": "http://example.org/Observation/27291093-775b-422c-a58a-03d234ef057c",
			"resource": {
				"resourceType": "Observation",
				"id": "27291093-775b-422c-a58a-03d234ef057c",
				"meta": {
					"profile": [
						"http://hl7.org/fhir/us/ph-library/StructureDefinition/us-ph-pregnancy-status-observation"
					]
				},
				"text": {
					"status": "generated",
					"div": "<div xmlns=\"http://www.w3.org/1999/xhtml\">This is a simple narrative with only plain text</div>"
				},
				"status": "final",
				"category": [
					{
						"coding": [
							{
								"system": "http://terminology.hl7.org/CodeSystem/observation-category",
								"code": "social-history",
								"display": "Social History"
							}
						]
					}
				],
				"code": {
					"coding": [
						{
							"system": "http://loinc.org",
							"code": "82810-3",
							"display": "Pregnancy status"
						}
					],
					"text": "Pregnancy status"
				},
				"subject": {
					"reference": "Patient/94138efb-e159-447f-8728-d6c26e952c5a"
				},
				"effectiveDateTime": "2024-09-03T03:55:27.857634+00:00",
				"performer": [
					{
						"reference": "Practitioner/f0ae2328-232f-414b-bc39-b0eb4db8e4a5",
						"display": "Practitioner"
					}
				],
				"valueCodeableConcept": {
					"coding": [
						{
							"system": "http://snomed.info/sct",
							"code": "60001007",
							"display": "Not pregnant (finding)"
						}
					],
					"text": "Not pregnant (finding)"
				}
			}
		}
	]
}