{
	"resourceType": "Bundle",
	"id": "d4e9f302-e485-46b5-92d6-88df3d77ad12",
	"meta": {
		"profile": [
			"http://hl7.org/fhir/us/ph-library/StructureDefinition/us-ph-content-bundle"
		]
	},
	"type": "collection",
	"entry": [
		{
			"fullUrl": "http://example.org/Patient/1f7e90d7-4a12-4db9-8b17-654ee51e2133",
			"resource": {
				"resourceType": "Patient",
				"id": "1f7e90d7-4a12-4db9-8b17-654ee51e2133",
				"meta": {
					"profile": [
						"http://hl7.org/fhir/us/ph-library/StructureDefinition/us-ph-patient"
					]
				},
				"text": {
					"status": "generated",
					"div": "<div xmlns=\"http://www.w3.org/1999/xhtml\">This is a simple narrative with only plain text</div>"
				},
				"extension": [
					{
						"extension": [
							{
								"url": "ombCategory",
								"valueCoding": {
									"system": "urn:oid:2.16.840.1.113883.6.238",
									"code": "1002-5",
									"display": "American Indian or Alaska Native"
								}
							},
							{
								"url": "text",
								"valueString": "American Indian or Alaska Native"
							}
						],
						"url": "http://hl7.org/fhir/us/core/StructureDefinition/us-core-race"
					},
					{
						"extension": [
							{
								"url": "ombCategory",
								"valueCoding": {
									"system": "urn:oid:2.16.840.1.113883.6.238",
									"code": "2186-5",
									"display": "Not Hispanic or Latino"
								}
							},
							{
								"url": "text",
								"valueString": "Not Hispanic or Latino"
							}
						],
						"url": "http://hl7.org/fhir/us/core/StructureDefinition/us-core-ethnicity"
					}
				],
				"identifier": [
					{
						"use": "usual",
						"type": {
							"coding": [
								{
									"system": "http://terminology.hl7.org/CodeSystem/v2-0203",
									"code": "MR",
									"display": "Medical Record Number"
								}
							],
							"text": "Medical Record Number"
						},
						"system": "http://hospital.smarthealthit.org",
						"value": "193023"
					}
				],
				"name": [
					{
						"use": "official",
						"family": "Baker",
						"given": [
							"Erica",
							"L"
						]
					}
				],
				"telecom": [
					{
						"system": "phone",
						"value": "517-425-1399",
						"use": "home"
					}
				],
				"gender": "female",
				"birthDate": "1970-09-24",
				"deceasedBoolean": false,
				"address": [
					{
						"use": "home",
						"line": [
							"604 Nicole Track"
						],
						"city": "Jenniferburgh",
						"state": "MD",
						"country": "US"
					}
				],
				"communication": [
					{
						"language": {
							"coding": [
								{
									"system": "urn:ietf:bcp:47",
									"code": "en",
									"display": "English"
								}
							]
						}
					}
				]
			}
		},
		{
			"fullUrl": "http://example.org/Observation/21c0ebc4-604d-4d3f-8998-e3d3261035a8",
			"resource": {
				"resourceType": "Observation",
				"id": "21c0ebc4-604d-4d3f-8998-e3d3261035a8",
				"meta": {
					"profile": [
						"http://hl7.org/fhir/us/core/StructureDefinition/us-core-smokingstatus"
					]
				},
				"text": {
					"status": "generated",
					"div": "<div xmlns=\"http://www.w3.org/1999/xhtml\">This is a simple narrative with only plain text</div>"
				},
				"status": "final",
				"category": [
					{
						"coding": [
							{
								"system": "http://terminology.hl7.org/CodeSystem/observation-category",
								"code": "social-history",
								"display": "Social History"
							}
						]
					}
				],
				"code": {
					"coding": [
						{
							"system": "http://loinc.org",
							"code": "72166-2",
							"display": "Tobacco smoking status"
						}
					],
					"text": "Tobacco smoking status"
				},
				"subject": {
					"reference": "Patient/1f7e90d7-4a12-4db9-8b17-654ee51e2133"
				},
				"effectiveDateTime": "2024-09-03T03:55:21.200063+00:00",
				"performer": [
					{
						"reference": "Practitioner/75df8bb3-059e-4d67-b798-44bc112214a1",
						"display": "Practitioner"
					}
				],
				"valueCodeableConcept": {
					"coding": [
						{
							"system": "http://snomed.info/sct",
							"code": "56771006",
							"display": "Heavy smoker (over 20 per day) (finding)"
						}
					],
					"text": "Heavy smoker (over 20 per day) (finding)"
				}
			}
		},
		{
			"fullUrl": "http://example.org/Practitioner/75df8bb3-059e-4d67-b798-44bc112214a1",
			"resource": {
				"resourceType": "Practitioner",
				"id": "75df8bb3-059e-4d67-b798-44bc112214a1",
				"meta": {
					"profile": [
						"http://hl7.org/fhir/us/core/StructureDefinition/us-core-practitioner"
					]
				},
				"text": {
					"status": "generated",
					"div": "<div xmlns=\"http://www.w3.org/1999/xhtml\">This is a simple narrative with only plain text</div>"
				},
				"identifier": [
					{
						"system": "http://hl7.org/fhir/sid/us-npi",
						"value": "9941339100"
					}
				],
				"name": [
					{
						"use": "official",
						"family": "Kirk",
						"given": [
							"Jesse"
						]
					}
				]
			}
		},
		{
			"fullUrl": "http://example.org/Organization/66f94852-1426-49cc-9bc7-6278610d0c7a",
			"resource": {
				"resourceType": "Organization",
				"id": "66f94852-1426-49cc-9bc7-6278610d0c7a",
				"meta": {
					"profile": [
						"http://hl7.org/fhir/us/ph-library/StructureDefinition/us-ph-organization"
					]
				},
				"text": {
					"status": "generated",
					"div": "<div xmlns=\"http://www.w3.org/1999/xhtml\">This is a simple narrative with only plain text</div>"
				},
				"active": true,
				"name": "Hospital A",
				"telecom": [
					{
						"system": "phone",
						"value": "(+1) 734-677-7777"
					}
				],
				"address": [
					{
						"use": "work",
						"line": [
							"20650 Reed Forks Apt. 456"
						],
						"state": "MD",
						"country": "US"
					}
				]
			}
		},
		{
			"fullUrl": "http://example.org/Encounter/eecfa8d9-ceb7-46f9-b8b1-0190c110c1dd",
			"resource": {
				"resourceType": "Encounter",
				"id": "eecfa8d9-ceb7-46f9-b8b1-0190c110c1dd",
				"meta": {
					"profile": [
						"http://hl7.org/fhir/us/ph-library/StructureDefinition/us-ph-encounter"
					]
				},
				"text": {
					"status": "generated",
					"div": "<div xmlns=\"http://www.w3.org/1999/xhtml\">This is a simple narrative with only plain text</div>"
				},
				"status": "finished",
				"class": {
					"system": "http://terminology.hl7.org/CodeSystem/v3-ActCode",
					"code": "AMB",
					"display": "ambulatory"
				},
				"type": [
					{
						"coding": [
							{
								"system": "http://www.ama-assn.org/go/cpt",
								"code": "99213",
								"display": "Office or other outpatient visit for the evaluation and management of an established patient, which requires a medically appropriate history and/or examination and low level of medical decision making. When using time for code selection, 20-29 minutes of total time is spent on the date of the encounter."
							}
						],
						"text": "Office Visit"
					}
				],
				"subject": {
					"reference": "Patient/1f7e90d7-4a12-4db9-8b17-654ee51e2133"
				},
				"participant": [
					{
						"individual": {
							"reference": "Practitioner/75df8bb3-059e-4d67-b798-44bc112214a1"
						}
					}
				],
				"period": {
					"start": "2024-02-02T01:58:54-04:00",
					"end": "2024-04-03T17:31:25-04:00"
				},
				"location": [
					{
						"location": {
							"reference": "Location/d1636409-8269-4758-9130-20daf48d02f6",
							"display": "Clinic Bldg A, Salem Medical Center, 4444 Healthcare Drive, Ann Arbor MI, 99999"
						}
					}
				],
				"serviceProvider": {
					"reference": "Organization/66f94852-1426-49cc-9bc7-6278610d0c7a"
				}
			}
		},
		{
			"fullUrl": "http://example.org/Location/d1636409-8269-4758-9130-20daf48d02f1",
			"resource": {
				"resourceType": "Location",
				"id": "d1636409-8269-4758-9130-20daf48d02f1",
				"meta": {
					"profile": [
						"http://hl7.org/fhir/us/ph-library/StructureDefinition/us-ph-location"
					]
				},
				"text": {
					"status": "generated",
					"div": "<div xmlns=\"http://www.w3.org/1999/xhtml\">This is a simple narrative with only plain text</div>"
				},
				"identifier": [
					{
						"system": "http://hl7.org/fhir/sid/us-npi",
						"value": "1063494177"
					}
				],
				"status": "active",
				"name": "Clinic Bldg A, Salem Medical Center",
				"type": [
					{
						"coding": [
							{
								"system": "http://terminology.hl7.org/CodeSystem/v3-RoleCode",
								"code": "HOSP",
								"display": "Hospital"
							}
						]
					}
				],
				"telecom": [
					{
						"system": "phone",
						"value": "(+1) (555)555-3001"
					},
					{
						"system": "fax",
						"value": "(+1) (555)555-3002"
					},
					{
						"system": "email",
						"value": "mail@smc.org"
					}
				],
				"address": {
					"line": [
						"Clinic Bldg A",
						"4444 Healthcare Drive"
					],
					"city": "Ann Arbor",
					"state": "MI",
					"postalCode": "99999"
				},
				"managingOrganization": {
					"reference": "Organization/66f94852-1426-49cc-9bc7-6278610d0c7a"
				}
			}
		},
		{
			"fullUrl": "http://example.org/Condition/ed473a9c-fa93-4478-8d1e-8a85b357bf9a",
			"resource": {
				"resourceType": "Condition",
				"id": "ed473a9c-fa93-4478-8d1e-8a85b357bf9a",
				"meta": {
					"profile": [
						"http://hl7.org/fhir/us/ph-library/StructureDefinition/us-ph-condition-encounter-diagnosis"
					]
				},
				"text": {
					"status": "generated",
					"div": "<div xmlns=\"http://www.w3.org/1999/xhtml\">This is a simple narrative with only plain text</div>"
				},
				"clinicalStatus": {
					"coding": [
						{
							"system": "http://terminology.hl7.org/CodeSystem/condition-clinical",
							"code": "active",
							"display": "Active"
						}
					]
				},
				"verificationStatus": {
					"coding": [
						{
							"system": "http://terminology.hl7.org/CodeSystem/condition-ver-status",
							"code": "confirmed",
							"display": "Confirmed"
						}
					]
				},
				"category": [
					{
						"coding": [
							{
								"system": "http://terminology.hl7.org/CodeSystem/condition-category",
								"code": "encounter-diagnosis",
								"display": "Encounter Diagnosis"
							}
						]
					}
				],
				"code": {
					"coding": [
						{
							"system": "http://hl7.org/fhir/sid/icd-10-cm",
							"code": "A54.02",
							"display": "Gonococcal vulvovaginitis, unspecified"
						}
					],
					"text": "Gonococcal vulvovaginitis, unspecified"
				},
				"subject": {
					"reference": "Patient/1f7e90d7-4a12-4db9-8b17-654ee51e2133"
				},
				"encounter": {
					"reference": "Encounter/eecfa8d9-ceb7-46f9-b8b1-0190c110c1dd"
				},
				"recordedDate": "2024-02-25T17:33:44-04:00"
			}
		},
		{
			"fullUrl": "http://example.org/MedicationRequest/aa9284dc-0d25-4f5c-9261-0915116ae015",
			"resource": {
				"resourceType": "MedicationRequest",
				"id": "aa9284dc-0d25-4f5c-9261-0915116ae015",
				"meta": {
					"profile": [
						"http://hl7.org/fhir/us/core/StructureDefinition/us-core-medicationrequest"
					]
				},
				"text": {
					"status": "generated",
					"div": "<div xmlns=\"http://www.w3.org/1999/xhtml\">This is a simple narrative with only plain text</div>"
				},
				"status": "completed",
				"intent": "order",
				"medicationCodeableConcept": {
					"coding": [
						{
							"system": "http://www.nlm.nih.gov/research/umls/rxnorm",
							"code": "309090",
							"display": "ceftriaxone 100 MG/ML Injectable Solution"
						}
					],
					"text": "ceftriaxone 100 MG/ML Injectable Solution"
				},
				"subject": {
					"reference": "Patient/1f7e90d7-4a12-4db9-8b17-654ee51e2133"
				},
				"encounter": {
					"reference": "Encounter/eecfa8d9-ceb7-46f9-b8b1-0190c110c1dd"
				},
				"authoredOn": "2024-03-04T13:00:44-04:00",
				"requester": {
					"reference": "Practitioner/75df8bb3-059e-4d67-b798-44bc112214a1"
				},
				"reasonCode": [
					{
						"coding": [
							{
								"system": "http://hl7.org/fhir/sid/icd-10-cm",
								"code": "A54.02",
								"display": "Gonococcal vulvovaginitis, unspecified"
							}
						],
						"text": "Gonococcal vulvovaginitis, unspecified"
					},
					{
						"coding": [
							{
								"system": "http://snomed.info/sct",
								"code": "236682002",
								"display": "Gonococcal urethritis"
							}
						],
						"text": "Gonococcal urethritis"
					}
				],
				"reasonReference": [
					{
						"reference": "Condition/ed473a9c-fa93-4478-8d1e-8a85b357bf9a"
					}
				],
				"dosageInstruction": [
					{
						"text": "IM 500mg/single dose"
					}
				]
			}
		},
		{
			"fullUrl": "http://example.org/Specimen/780d593c-12e9-47e2-8cca-ab224355e206",
			"resource": {
				"resourceType": "Specimen",
				"id": "780d593c-12e9-47e2-8cca-ab224355e206",
				"meta": {
					"profile": [
						"http://hl7.org/fhir/us/ph-library/StructureDefinition/us-ph-specimen"
					]
				},
				"text": {
					"status": "generated",
					"div": "<div xmlns=\"http://www.w3.org/1999/xhtml\">This is a simple narrative with only plain text</div>"
				},
				"type": {
					"coding": [
						{
							"system": "http://terminology.hl7.org/CodeSystem/v2-0487",
							"code": "GENV",
							"display": "Genital vaginal"
						}
					]
				},
				"subject": {
					"reference": "Patient/1f7e90d7-4a12-4db9-8b17-654ee51e2133"
				}
			}
		},
		{
			"fullUrl": "http://example.org/Observation/cecbd04b-177b-4c1a-b229-ea2bc993ebed",
			"resource": {
				"resourceType": "Observation",
				"id": "cecbd04b-177b-4c1a-b229-ea2bc993ebed",
				"meta": {
					"profile": [
						"http://hl7.org/fhir/us/ph-library/StructureDefinition/us-ph-lab-result-observation"
					]
				},
				"text": {
					"status": "generated",
					"div": "<div xmlns=\"http://www.w3.org/1999/xhtml\">This is a simple narrative with only plain text</div>"
				},
				"status": "final",
				"category": [
					{
						"coding": [
							{
								"system": "http://terminology.hl7.org/CodeSystem/observation-category",
								"code": "laboratory",
								"display": "Laboratory"
							}
						]
					}
				],
				"code": {
					"coding": [
						{
							"system": "http://loinc.org",
							"code": "21415-5",
							"display": "Neisseria gonorrhoeae DNA [Presence] in Urethra by NAA with probe detection"
						}
					]
				},
				"subject": {
					"reference": "Patient/1f7e90d7-4a12-4db9-8b17-654ee51e2133"
				},
				"encounter": {
					"reference": "Encounter/eecfa8d9-ceb7-46f9-b8b1-0190c110c1dd"
				},
				"effectiveDateTime": "2024-07-11",
				"performer": [
					{
						"reference": "Practitioner/75df8bb3-059e-4d67-b798-44bc112214a1",
						"display": "Practitioner"
					}
				],
				"valueCodeableConcept": {
					"coding": [
						{
							"system": "http://snomed.info/sct",
							"code": "260373001",
							"display": "Detected"
						}
					]
				},
				"interpretation": [
					{
						"coding": [
							{
								"system": "http://terminology.hl7.org/CodeSystem/v3-ObservationInterpretation",
								"code": "POS",
								"display": "Positive"
							}
						]
					}
				],
				"specimen": {
					"reference": "Specimen/780d593c-12e9-47e2-8cca-ab224355e206"
				}
			}
		},
		{
			"fullUrl": "http://example.org/Observation/ac24b1a4-66a6-4a82-901b-9306de75a695",
			"resource": {
				"resourceType": "Observation",
				"id": "ac24b1a4-66a6-4a82-901b-9306de75a695",
				"meta": {
					"profile": [
						"http://hl7.org/fhir/us/ph-library/StructureDefinition/us-ph-pregnancy-status-observation"
					]
				},
				"text": {
					"status": "generated",
					"div": "<div xmlns=\"http://www.w3.org/1999/xhtml\">This is a simple narrative with only plain text</div>"
				},
				"status": "final",
				"category": [
					{
						"coding": [
							{
								"system": "http://terminology.hl7.org/CodeSystem/observation-category",
								"code": "social-history",
								"display": "Social History"
							}
						]
					}
				],
				"code": {
					"coding": [
						{
							"system": "http://loinc.org",
							"code": "82810-3",
							"display": "Pregnancy status"
						}
					],
					"text": "Pregnancy status"
				},
				"subject": {
					"reference": "Patient/1f7e90d7-4a12-4db9-8b17-654ee51e2133"
				},
				"effectiveDateTime": "2024-09-03T03:55:21.203610+00:00",
				"performer": [
					{
						"reference": "Practitioner/75df8bb3-059e-4d67-b798-44bc112214a1",
						"display": "Practitioner"
					}
				],
				"valueCodeableConcept": {
					"coding": [
						{
							"system": "http://snomed.info/sct",
							"code": "60001007",
							"display": "Not pregnant (finding)"
						}
					],
					"text": "Not pregnant (finding)"
				}
			}
		}
	]
}