{
	"resourceType": "Bundle",
	"id": "a403de6b-3885-4aff-a27f-8cbb1024fe63",
	"meta": {
		"profile": [
			"http://hl7.org/fhir/us/ph-library/StructureDefinition/us-ph-content-bundle"
		]
	},
	"type": "collection",
	"entry": [
		{
			"fullUrl": "http://example.org/Patient/35f5dc53-4a05-4c2c-8d30-96f5871f02d2",
			"resource": {
				"resourceType": "Patient",
				"id": "35f5dc53-4a05-4c2c-8d30-96f5871f02d2",
				"meta": {
					"profile": [
						"http://hl7.org/fhir/us/ph-library/StructureDefinition/us-ph-patient"
					]
				},
				"text": {
					"status": "generated",
					"div": "<div xmlns=\"http://www.w3.org/1999/xhtml\">This is a simple narrative with only plain text</div>"
				},
				"extension": [
					{
						"extension": [
							{
								"url": "ombCategory",
								"valueCoding": {
									"system": "urn:oid:2.16.840.1.113883.6.238",
									"code": "2106-3",
									"display": "White"
								}
							},
							{
								"url": "text",
								"valueString": "White"
							}
						],
						"url": "http://hl7.org/fhir/us/core/StructureDefinition/us-core-race"
					},
					{
						"extension": [
							{
								"url": "ombCategory",
								"valueCoding": {
									"system": "urn:oid:2.16.840.1.113883.6.238",
									"code": "2186-5",
									"display": "Not Hispanic or Latino"
								}
							},
							{
								"url": "text",
								"valueString": "Not Hispanic or Latino"
							}
						],
						"url": "http://hl7.org/fhir/us/core/StructureDefinition/us-core-ethnicity"
					}
				],
				"identifier": [
					{
						"use": "usual",
						"type": {
							"coding": [
								{
									"system": "http://terminology.hl7.org/CodeSystem/v2-0203",
									"code": "MR",
									"display": "Medical Record Number"
								}
							],
							"text": "Medical Record Number"
						},
						"system": "http://hospital.smarthealthit.org",
						"value": "876525"
					}
				],
				"name": [
					{
						"use": "official",
						"family": "Chamberlain",
						"given": [
							"Peter",
							"J"
						]
					}
				],
				"telecom": [
					{
						"system": "phone",
						"value": "517-425-1399",
						"use": "home"
					}
				],
				"gender": "male",
				"birthDate": "1967-09-14",
				"deceasedBoolean": false,
				"address": [
					{
						"use": "home",
						"line": [
							"534 Erewhon, Pleasantville, Vic,"
						],
						"city": "Pleasantville",
						"state": "AR",
						"country": "US"
					}
				],
				"communication": [
					{
						"language": {
							"coding": [
								{
									"system": "urn:ietf:bcp:47",
									"code": "en",
									"display": "English"
								}
							]
						}
					}
				]
			}
		},
		{
			"fullUrl": "http://example.org/Observation/9edf5f9d-416e-4c4c-9e3e-feeee3a14b67",
			"resource": {
				"resourceType": "Observation",
				"id": "9edf5f9d-416e-4c4c-9e3e-feeee3a14b67",
				"meta": {
					"profile": [
						"http://hl7.org/fhir/us/core/StructureDefinition/us-core-simple-observation"
					]
				},
				"text": {
					"status": "generated",
					"div": "<div xmlns=\"http://www.w3.org/1999/xhtml\">This is a simple narrative with only plain text</div>"
				},
				"status": "final",
				"category": [
					{
						"coding": [
							{
								"system": "http://terminology.hl7.org/CodeSystem/observation-category",
								"code": "social-history",
								"display": "Social History"
							}
						]
					}
				],
				"code": {
					"coding": [
						{
							"system": "http://loinc.org",
							"code": "85736-7",
							"display": "Number of sexual partners in last 12 months"
						}
					],
					"text": "Number of sexual partners in last 12 months"
				},
				"subject": {
					"reference": "Patient/35f5dc53-4a05-4c2c-8d30-96f5871f02d2"
				},
				"effectiveDateTime": "2024-09-03T03:55:09.622257+00:00",
				"performer": [
					{
						"reference": "Practitioner/8e4d679c-35d8-4c3f-be10-d68b6e14a353",
						"display": "Practitioner"
					}
				],
				"valueCodeableConcept": {
					"coding": [
						{
							"system": "http://snomed.info/sct",
							"code": "228460004",
							"display": "Multiple current sexual partners (finding)"
						}
					],
					"text": "Multiple current sexual partners (finding)"
				}
			}
		},
		{
			"fullUrl": "http://example.org/Practitioner/8e4d679c-35d8-4c3f-be10-d68b6e14a353",
			"resource": {
				"resourceType": "Practitioner",
				"id": "8e4d679c-35d8-4c3f-be10-d68b6e14a353",
				"meta": {
					"profile": [
						"http://hl7.org/fhir/us/core/StructureDefinition/us-core-practitioner"
					]
				},
				"text": {
					"status": "generated",
					"div": "<div xmlns=\"http://www.w3.org/1999/xhtml\">This is a simple narrative with only plain text</div>"
				},
				"identifier": [
					{
						"system": "http://hl7.org/fhir/sid/us-npi",
						"value": "4313295766"
					}
				],
				"name": [
					{
						"use": "official",
						"family": "Casey",
						"given": [
							"Michael"
						]
					}
				]
			}
		},
		{
			"fullUrl": "http://example.org/Organization/972cdbf0-2775-488b-b4ed-ad7ae1e7b32a",
			"resource": {
				"resourceType": "Organization",
				"id": "972cdbf0-2775-488b-b4ed-ad7ae1e7b32a",
				"meta": {
					"profile": [
						"http://hl7.org/fhir/us/ph-library/StructureDefinition/us-ph-organization"
					]
				},
				"text": {
					"status": "generated",
					"div": "<div xmlns=\"http://www.w3.org/1999/xhtml\">This is a simple narrative with only plain text</div>"
				},
				"active": true,
				"name": "Hospital B",
				"telecom": [
					{
						"system": "phone",
						"value": "(+1) 734-677-7777"
					}
				],
				"address": [
					{
						"use": "work",
						"line": [
							"805 Amy Drives"
						],
						"state": "AR",
						"country": "US"
					}
				]
			}
		},
		{
			"fullUrl": "http://example.org/Encounter/b1213263-71e4-4842-bd34-8e9a86ba3cc5",
			"resource": {
				"resourceType": "Encounter",
				"id": "b1213263-71e4-4842-bd34-8e9a86ba3cc5",
				"meta": {
					"profile": [
						"http://hl7.org/fhir/us/ph-library/StructureDefinition/us-ph-encounter"
					]
				},
				"text": {
					"status": "generated",
					"div": "<div xmlns=\"http://www.w3.org/1999/xhtml\">This is a simple narrative with only plain text</div>"
				},
				"status": "finished",
				"class": {
					"system": "http://terminology.hl7.org/CodeSystem/v3-ActCode",
					"code": "AMB",
					"display": "ambulatory"
				},
				"type": [
					{
						"coding": [
							{
								"system": "http://www.ama-assn.org/go/cpt",
								"code": "99213",
								"display": "Office or other outpatient visit for the evaluation and management of an established patient, which requires a medically appropriate history and/or examination and low level of medical decision making. When using time for code selection, 20-29 minutes of total time is spent on the date of the encounter."
							}
						],
						"text": "Office Visit"
					}
				],
				"subject": {
					"reference": "Patient/35f5dc53-4a05-4c2c-8d30-96f5871f02d2"
				},
				"participant": [
					{
						"individual": {
							"reference": "Practitioner/8e4d679c-35d8-4c3f-be10-d68b6e14a353"
						}
					}
				],
				"period": {
					"start": "2024-02-18T14:29:39-04:00",
					"end": "2024-04-06T07:30:35-04:00"
				},
				"location": [
					{
						"location": {
							"reference": "Location/d1636409-8269-4758-9130-20daf48d02f6",
							"display": "Clinic Bldg A, Salem Medical Center, 4444 Healthcare Drive, Ann Arbor MI, 99999"
						}
					}
				],
				"serviceProvider": {
					"reference": "Organization/972cdbf0-2775-488b-b4ed-ad7ae1e7b32a"
				}
			}
		},
		{
			"fullUrl": "http://example.org/Location/d1636409-8269-4758-9130-20daf48d02f1",
			"resource": {
				"resourceType": "Location",
				"id": "d1636409-8269-4758-9130-20daf48d02f1",
				"meta": {
					"profile": [
						"http://hl7.org/fhir/us/ph-library/StructureDefinition/us-ph-location"
					]
				},
				"text": {
					"status": "generated",
					"div": "<div xmlns=\"http://www.w3.org/1999/xhtml\">This is a simple narrative with only plain text</div>"
				},
				"identifier": [
					{
						"system": "http://hl7.org/fhir/sid/us-npi",
						"value": "1063494177"
					}
				],
				"status": "active",
				"name": "Clinic Bldg A, Salem Medical Center",
				"type": [
					{
						"coding": [
							{
								"system": "http://terminology.hl7.org/CodeSystem/v3-RoleCode",
								"code": "HOSP",
								"display": "Hospital"
							}
						]
					}
				],
				"telecom": [
					{
						"system": "phone",
						"value": "(+1) (555)555-3001"
					},
					{
						"system": "fax",
						"value": "(+1) (555)555-3002"
					},
					{
						"system": "email",
						"value": "mail@smc.org"
					}
				],
				"address": {
					"line": [
						"Clinic Bldg A",
						"4444 Healthcare Drive"
					],
					"city": "Ann Arbor",
					"state": "MI",
					"postalCode": "99999"
				},
				"managingOrganization": {
					"reference": "Organization/972cdbf0-2775-488b-b4ed-ad7ae1e7b32a"
				}
			}
		},
		{
			"fullUrl": "http://example.org/Condition/a464af4c-bd26-407e-a6ab-c0228e56a370",
			"resource": {
				"resourceType": "Condition",
				"id": "a464af4c-bd26-407e-a6ab-c0228e56a370",
				"meta": {
					"profile": [
						"http://hl7.org/fhir/us/ph-library/StructureDefinition/us-ph-condition-encounter-diagnosis"
					]
				},
				"text": {
					"status": "generated",
					"div": "<div xmlns=\"http://www.w3.org/1999/xhtml\">This is a simple narrative with only plain text</div>"
				},
				"clinicalStatus": {
					"coding": [
						{
							"system": "http://terminology.hl7.org/CodeSystem/condition-clinical",
							"code": "active",
							"display": "Active"
						}
					]
				},
				"verificationStatus": {
					"coding": [
						{
							"system": "http://terminology.hl7.org/CodeSystem/condition-ver-status",
							"code": "confirmed",
							"display": "Confirmed"
						}
					]
				},
				"category": [
					{
						"coding": [
							{
								"system": "http://terminology.hl7.org/CodeSystem/condition-category",
								"code": "encounter-diagnosis",
								"display": "Encounter Diagnosis"
							}
						]
					}
				],
				"code": {
					"coding": [
						{
							"system": "http://hl7.org/fhir/sid/icd-10-cm",
							"code": "A55",
							"display": "Chlamydial lymphogranuloma (venereum)"
						}
					],
					"text": "Chlamydial lymphogranuloma (venereum)"
				},
				"subject": {
					"reference": "Patient/35f5dc53-4a05-4c2c-8d30-96f5871f02d2"
				},
				"encounter": {
					"reference": "Encounter/b1213263-71e4-4842-bd34-8e9a86ba3cc5"
				},
				"recordedDate": "2024-04-02T07:23:07-04:00"
			}
		},
		{
			"fullUrl": "http://example.org/MedicationRequest/b0b84cb9-4b1e-4c1b-b082-009bf9da4833",
			"resource": {
				"resourceType": "MedicationRequest",
				"id": "b0b84cb9-4b1e-4c1b-b082-009bf9da4833",
				"meta": {
					"profile": [
						"http://hl7.org/fhir/us/core/StructureDefinition/us-core-medicationrequest"
					]
				},
				"text": {
					"status": "generated",
					"div": "<div xmlns=\"http://www.w3.org/1999/xhtml\">This is a simple narrative with only plain text</div>"
				},
				"status": "completed",
				"intent": "order",
				"medicationCodeableConcept": {
					"coding": [
						{
							"system": "http://www.nlm.nih.gov/research/umls/rxnorm",
							"code": "308460",
							"display": "azithromycin 250 MG Oral Tablet"
						}
					],
					"text": "azithromycin 250 MG Oral Tablet"
				},
				"subject": {
					"reference": "Patient/35f5dc53-4a05-4c2c-8d30-96f5871f02d2"
				},
				"encounter": {
					"reference": "Encounter/b1213263-71e4-4842-bd34-8e9a86ba3cc5"
				},
				"authoredOn": "2024-05-15T11:30:26-04:00",
				"requester": {
					"reference": "Practitioner/8e4d679c-35d8-4c3f-be10-d68b6e14a353"
				},
				"reasonCode": [
					{
						"coding": [
							{
								"system": "http://hl7.org/fhir/sid/icd-10-cm",
								"code": "A55",
								"display": "Chlamydial lymphogranuloma (venereum)"
							}
						],
						"text": "Chlamydial lymphogranuloma (venereum)"
					},
					{
						"coding": [
							{
								"system": "http://snomed.info/sct",
								"code": "240589008",
								"display": "Chlamydia trachomatis infection (disorder)"
							}
						],
						"text": "Chlamydia trachomatis infection (disorder)"
					}
				],
				"reasonReference": [
					{
						"reference": "Condition/a464af4c-bd26-407e-a6ab-c0228e56a370"
					}
				],
				"dosageInstruction": [
					{
						"text": "Oral 250 MG / 1 each"
					}
				]
			}
		},
		{
			"fullUrl": "http://example.org/Specimen/89259c15-a06d-4fea-89a8-7f29866d94b1",
			"resource": {
				"resourceType": "Specimen",
				"id": "89259c15-a06d-4fea-89a8-7f29866d94b1",
				"meta": {
					"profile": [
						"http://hl7.org/fhir/us/ph-library/StructureDefinition/us-ph-specimen"
					]
				},
				"text": {
					"status": "generated",
					"div": "<div xmlns=\"http://www.w3.org/1999/xhtml\">This is a simple narrative with only plain text</div>"
				},
				"type": {
					"coding": [
						{
							"system": "http://terminology.hl7.org/CodeSystem/v2-0487",
							"code": "BLD",
							"display": "Whole blood"
						}
					]
				},
				"subject": {
					"reference": "Patient/35f5dc53-4a05-4c2c-8d30-96f5871f02d2"
				}
			}
		},
		{
			"fullUrl": "http://example.org/Observation/acfa14e6-cad1-431e-9395-251b247ece96",
			"resource": {
				"resourceType": "Observation",
				"id": "acfa14e6-cad1-431e-9395-251b247ece96",
				"meta": {
					"profile": [
						"http://hl7.org/fhir/us/ph-library/StructureDefinition/us-ph-lab-result-observation"
					]
				},
				"text": {
					"status": "generated",
					"div": "<div xmlns=\"http://www.w3.org/1999/xhtml\">This is a simple narrative with only plain text</div>"
				},
				"status": "final",
				"category": [
					{
						"coding": [
							{
								"system": "http://terminology.hl7.org/CodeSystem/observation-category",
								"code": "laboratory",
								"display": "Laboratory"
							}
						]
					}
				],
				"code": {
					"coding": [
						{
							"system": "http://loinc.org",
							"code": "31768-5",
							"display": "Chlamydia trachomatis Ag [Presence] in Blood"
						}
					]
				},
				"subject": {
					"reference": "Patient/35f5dc53-4a05-4c2c-8d30-96f5871f02d2"
				},
				"encounter": {
					"reference": "Encounter/b1213263-71e4-4842-bd34-8e9a86ba3cc5"
				},
				"effectiveDateTime": "2024-07-01",
				"performer": [
					{
						"reference": "Practitioner/8e4d679c-35d8-4c3f-be10-d68b6e14a353",
						"display": "Practitioner"
					}
				],
				"valueCodeableConcept": {
					"coding": [
						{
							"system": "http://snomed.info/sct",
							"code": "260373001",
							"display": "Detected"
						}
					]
				},
				"interpretation": [
					{
						"coding": [
							{
								"system": "http://terminology.hl7.org/CodeSystem/v3-ObservationInterpretation",
								"code": "POS",
								"display": "Positive"
							}
						]
					}
				],
				"specimen": {
					"reference": "Specimen/89259c15-a06d-4fea-89a8-7f29866d94b1"
				}
			}
		},
		{
			"fullUrl": "http://example.org/Observation/25110e21-545b-48f7-a071-d0c30dabf29a",
			"resource": {
				"resourceType": "Observation",
				"id": "25110e21-545b-48f7-a071-d0c30dabf29a",
				"meta": {
					"profile": [
						"http://hl7.org/fhir/us/ph-library/StructureDefinition/us-ph-pregnancy-status-observation"
					]
				},
				"text": {
					"status": "generated",
					"div": "<div xmlns=\"http://www.w3.org/1999/xhtml\">This is a simple narrative with only plain text</div>"
				},
				"status": "final",
				"category": [
					{
						"coding": [
							{
								"system": "http://terminology.hl7.org/CodeSystem/observation-category",
								"code": "social-history",
								"display": "Social History"
							}
						]
					}
				],
				"code": {
					"coding": [
						{
							"system": "http://loinc.org",
							"code": "82810-3",
							"display": "Pregnancy status"
						}
					],
					"text": "Pregnancy status"
				},
				"subject": {
					"reference": "Patient/35f5dc53-4a05-4c2c-8d30-96f5871f02d2"
				},
				"effectiveDateTime": "2024-09-03T03:55:09.623521+00:00",
				"performer": [
					{
						"reference": "Practitioner/8e4d679c-35d8-4c3f-be10-d68b6e14a353",
						"display": "Practitioner"
					}
				],
				"valueCodeableConcept": {
					"coding": [
						{
							"system": "http://snomed.info/sct",
							"code": "60001007",
							"display": "Not pregnant (finding)"
						}
					],
					"text": "Not pregnant (finding)"
				}
			}
		}
	]
}