{
	"resourceType": "Bundle",
	"id": "a366e370-6b4a-4e6c-a7f9-058ef733164f",
	"meta": {
		"profile": [
			"http://hl7.org/fhir/us/ph-library/StructureDefinition/us-ph-content-bundle"
		]
	},
	"type": "collection",
	"entry": [
		{
			"fullUrl": "http://example.org/Patient/6aee18ca-936a-4da5-8853-7823cd02646f",
			"resource": {
				"resourceType": "Patient",
				"id": "6aee18ca-936a-4da5-8853-7823cd02646f",
				"meta": {
					"profile": [
						"http://hl7.org/fhir/us/ph-library/StructureDefinition/us-ph-patient"
					]
				},
				"text": {
					"status": "generated",
					"div": "<div xmlns=\"http://www.w3.org/1999/xhtml\">This is a simple narrative with only plain text</div>"
				},
				"extension": [
					{
						"extension": [
							{
								"url": "ombCategory",
								"valueCoding": {
									"system": "urn:oid:2.16.840.1.113883.6.238",
									"code": "2106-3",
									"display": "White"
								}
							},
							{
								"url": "text",
								"valueString": "White"
							}
						],
						"url": "http://hl7.org/fhir/us/core/StructureDefinition/us-core-race"
					},
					{
						"extension": [
							{
								"url": "ombCategory",
								"valueCoding": {
									"system": "urn:oid:2.16.840.1.113883.6.238",
									"code": "2186-5",
									"display": "Not Hispanic or Latino"
								}
							},
							{
								"url": "text",
								"valueString": "Not Hispanic or Latino"
							}
						],
						"url": "http://hl7.org/fhir/us/core/StructureDefinition/us-core-ethnicity"
					}
				],
				"identifier": [
					{
						"use": "usual",
						"type": {
							"coding": [
								{
									"system": "http://terminology.hl7.org/CodeSystem/v2-0203",
									"code": "MR",
									"display": "Medical Record Number"
								}
							],
							"text": "Medical Record Number"
						},
						"system": "http://hospital.smarthealthit.org",
						"value": "205265"
					}
				],
				"name": [
					{
						"use": "official",
						"family": "Cook",
						"given": [
							"Jennifer",
							"J"
						]
					}
				],
				"telecom": [
					{
						"system": "phone",
						"value": "517-425-1399",
						"use": "home"
					}
				],
				"gender": "female",
				"birthDate": "1966-01-01",
				"deceasedBoolean": false,
				"address": [
					{
						"use": "home",
						"line": [
							"68690 Clark Port Apt. 182"
						],
						"city": "Lawrenceborough",
						"state": "CO",
						"country": "US"
					}
				],
				"communication": [
					{
						"language": {
							"coding": [
								{
									"system": "urn:ietf:bcp:47",
									"code": "en",
									"display": "English"
								}
							]
						}
					}
				]
			}
		},
		{
			"fullUrl": "http://example.org/Observation/5ed2cde0-30fe-41b5-81a0-c836f0524899",
			"resource": {
				"resourceType": "Observation",
				"id": "5ed2cde0-30fe-41b5-81a0-c836f0524899",
				"meta": {
					"profile": [
						"http://hl7.org/fhir/us/core/StructureDefinition/us-core-simple-observation"
					]
				},
				"text": {
					"status": "generated",
					"div": "<div xmlns=\"http://www.w3.org/1999/xhtml\">This is a simple narrative with only plain text</div>"
				},
				"status": "final",
				"category": [
					{
						"coding": [
							{
								"system": "http://terminology.hl7.org/CodeSystem/observation-category",
								"code": "social-history",
								"display": "Social History"
							}
						]
					}
				],
				"code": {
					"coding": [
						{
							"system": "http://loinc.org",
							"code": "69721-9",
							"display": "Do you ever drink alcohol - including beer or wine [Reported.PHQ]"
						}
					],
					"text": "Do you ever drink alcohol - including beer or wine [Reported.PHQ]"
				},
				"subject": {
					"reference": "Patient/6aee18ca-936a-4da5-8853-7823cd02646f"
				},
				"effectiveDateTime": "2024-09-03T03:55:18.896499+00:00",
				"performer": [
					{
						"reference": "Practitioner/b2018008-6d71-4b5c-aad9-0d969270ffc5",
						"display": "Practitioner"
					}
				],
				"valueCodeableConcept": {
					"coding": [
						{
							"system": "http://snomed.info/sct",
							"code": "228319007",
							"display": "Drinks alcohol daily (finding)"
						}
					],
					"text": "Drinks alcohol daily (finding)"
				}
			}
		},
		{
			"fullUrl": "http://example.org/Practitioner/b2018008-6d71-4b5c-aad9-0d969270ffc5",
			"resource": {
				"resourceType": "Practitioner",
				"id": "b2018008-6d71-4b5c-aad9-0d969270ffc5",
				"meta": {
					"profile": [
						"http://hl7.org/fhir/us/core/StructureDefinition/us-core-practitioner"
					]
				},
				"text": {
					"status": "generated",
					"div": "<div xmlns=\"http://www.w3.org/1999/xhtml\">This is a simple narrative with only plain text</div>"
				},
				"identifier": [
					{
						"system": "http://hl7.org/fhir/sid/us-npi",
						"value": "1032566725"
					}
				],
				"name": [
					{
						"use": "official",
						"family": "Russell",
						"given": [
							"Collin"
						]
					}
				]
			}
		},
		{
			"fullUrl": "http://example.org/Organization/8b90961c-4062-4d09-b250-a4d721e48d2f",
			"resource": {
				"resourceType": "Organization",
				"id": "8b90961c-4062-4d09-b250-a4d721e48d2f",
				"meta": {
					"profile": [
						"http://hl7.org/fhir/us/ph-library/StructureDefinition/us-ph-organization"
					]
				},
				"text": {
					"status": "generated",
					"div": "<div xmlns=\"http://www.w3.org/1999/xhtml\">This is a simple narrative with only plain text</div>"
				},
				"active": true,
				"name": "Hospital J",
				"telecom": [
					{
						"system": "phone",
						"value": "(+1) 734-677-7777"
					}
				],
				"address": [
					{
						"use": "work",
						"line": [
							"016 Thompson Inlet Apt. 469"
						],
						"state": "CO",
						"country": "US"
					}
				]
			}
		},
		{
			"fullUrl": "http://example.org/Encounter/6791cfd9-e012-43e4-a1b0-bc4f6638f47a",
			"resource": {
				"resourceType": "Encounter",
				"id": "6791cfd9-e012-43e4-a1b0-bc4f6638f47a",
				"meta": {
					"profile": [
						"http://hl7.org/fhir/us/ph-library/StructureDefinition/us-ph-encounter"
					]
				},
				"text": {
					"status": "generated",
					"div": "<div xmlns=\"http://www.w3.org/1999/xhtml\">This is a simple narrative with only plain text</div>"
				},
				"status": "finished",
				"class": {
					"system": "http://terminology.hl7.org/CodeSystem/v3-ActCode",
					"code": "AMB",
					"display": "ambulatory"
				},
				"type": [
					{
						"coding": [
							{
								"system": "http://www.ama-assn.org/go/cpt",
								"code": "99213",
								"display": "Office or other outpatient visit for the evaluation and management of an established patient, which requires a medically appropriate history and/or examination and low level of medical decision making. When using time for code selection, 20-29 minutes of total time is spent on the date of the encounter."
							}
						],
						"text": "Office Visit"
					}
				],
				"subject": {
					"reference": "Patient/6aee18ca-936a-4da5-8853-7823cd02646f"
				},
				"participant": [
					{
						"individual": {
							"reference": "Practitioner/b2018008-6d71-4b5c-aad9-0d969270ffc5"
						}
					}
				],
				"period": {
					"start": "2024-03-22T00:24:34-04:00",
					"end": "2024-05-09T05:34:04-04:00"
				},
				"location": [
					{
						"location": {
							"reference": "Location/d1636409-8269-4758-9130-20daf48d02f6",
							"display": "Clinic Bldg A, Salem Medical Center, 4444 Healthcare Drive, Ann Arbor MI, 99999"
						}
					}
				],
				"serviceProvider": {
					"reference": "Organization/8b90961c-4062-4d09-b250-a4d721e48d2f"
				}
			}
		},
		{
			"fullUrl": "http://example.org/Location/d1636409-8269-4758-9130-20daf48d02f1",
			"resource": {
				"resourceType": "Location",
				"id": "d1636409-8269-4758-9130-20daf48d02f1",
				"meta": {
					"profile": [
						"http://hl7.org/fhir/us/ph-library/StructureDefinition/us-ph-location"
					]
				},
				"text": {
					"status": "generated",
					"div": "<div xmlns=\"http://www.w3.org/1999/xhtml\">This is a simple narrative with only plain text</div>"
				},
				"identifier": [
					{
						"system": "http://hl7.org/fhir/sid/us-npi",
						"value": "1063494177"
					}
				],
				"status": "active",
				"name": "Clinic Bldg A, Salem Medical Center",
				"type": [
					{
						"coding": [
							{
								"system": "http://terminology.hl7.org/CodeSystem/v3-RoleCode",
								"code": "HOSP",
								"display": "Hospital"
							}
						]
					}
				],
				"telecom": [
					{
						"system": "phone",
						"value": "(+1) (555)555-3001"
					},
					{
						"system": "fax",
						"value": "(+1) (555)555-3002"
					},
					{
						"system": "email",
						"value": "mail@smc.org"
					}
				],
				"address": {
					"line": [
						"Clinic Bldg A",
						"4444 Healthcare Drive"
					],
					"city": "Ann Arbor",
					"state": "MI",
					"postalCode": "99999"
				},
				"managingOrganization": {
					"reference": "Organization/8b90961c-4062-4d09-b250-a4d721e48d2f"
				}
			}
		},
		{
			"fullUrl": "http://example.org/Condition/5a656415-7367-4100-828b-26956000f7c1",
			"resource": {
				"resourceType": "Condition",
				"id": "5a656415-7367-4100-828b-26956000f7c1",
				"meta": {
					"profile": [
						"http://hl7.org/fhir/us/ph-library/StructureDefinition/us-ph-condition-encounter-diagnosis"
					]
				},
				"text": {
					"status": "generated",
					"div": "<div xmlns=\"http://www.w3.org/1999/xhtml\">This is a simple narrative with only plain text</div>"
				},
				"clinicalStatus": {
					"coding": [
						{
							"system": "http://terminology.hl7.org/CodeSystem/condition-clinical",
							"code": "active",
							"display": "Active"
						}
					]
				},
				"verificationStatus": {
					"coding": [
						{
							"system": "http://terminology.hl7.org/CodeSystem/condition-ver-status",
							"code": "confirmed",
							"display": "Confirmed"
						}
					]
				},
				"category": [
					{
						"coding": [
							{
								"system": "http://terminology.hl7.org/CodeSystem/condition-category",
								"code": "encounter-diagnosis",
								"display": "Encounter Diagnosis"
							}
						]
					}
				],
				"code": {
					"coding": [
						{
							"system": "http://hl7.org/fhir/sid/icd-10-cm",
							"code": "A54.03",
							"display": "Gonococcal cervicitis, unspecified"
						}
					],
					"text": "Gonococcal cervicitis, unspecified"
				},
				"subject": {
					"reference": "Patient/6aee18ca-936a-4da5-8853-7823cd02646f"
				},
				"encounter": {
					"reference": "Encounter/6791cfd9-e012-43e4-a1b0-bc4f6638f47a"
				},
				"recordedDate": "2024-05-14T06:53:29-04:00"
			}
		},
		{
			"fullUrl": "http://example.org/MedicationRequest/14d5e121-4592-4e40-8400-9432e4ddb913",
			"resource": {
				"resourceType": "MedicationRequest",
				"id": "14d5e121-4592-4e40-8400-9432e4ddb913",
				"meta": {
					"profile": [
						"http://hl7.org/fhir/us/core/StructureDefinition/us-core-medicationrequest"
					]
				},
				"text": {
					"status": "generated",
					"div": "<div xmlns=\"http://www.w3.org/1999/xhtml\">This is a simple narrative with only plain text</div>"
				},
				"status": "completed",
				"intent": "order",
				"medicationCodeableConcept": {
					"coding": [
						{
							"system": "http://www.nlm.nih.gov/research/umls/rxnorm",
							"code": "309090",
							"display": "ceftriaxone 100 MG/ML Injectable Solution"
						}
					],
					"text": "ceftriaxone 100 MG/ML Injectable Solution"
				},
				"subject": {
					"reference": "Patient/6aee18ca-936a-4da5-8853-7823cd02646f"
				},
				"encounter": {
					"reference": "Encounter/6791cfd9-e012-43e4-a1b0-bc4f6638f47a"
				},
				"authoredOn": "2024-04-08T13:26:20-04:00",
				"requester": {
					"reference": "Practitioner/b2018008-6d71-4b5c-aad9-0d969270ffc5"
				},
				"reasonCode": [
					{
						"coding": [
							{
								"system": "http://hl7.org/fhir/sid/icd-10-cm",
								"code": "A54.03",
								"display": "Gonococcal cervicitis, unspecified"
							}
						],
						"text": "Gonococcal cervicitis, unspecified"
					},
					{
						"coding": [
							{
								"system": "http://snomed.info/sct",
								"code": "236682002",
								"display": "Gonococcal urethritis"
							}
						],
						"text": "Gonococcal urethritis"
					}
				],
				"reasonReference": [
					{
						"reference": "Condition/5a656415-7367-4100-828b-26956000f7c1"
					}
				],
				"dosageInstruction": [
					{
						"text": "IM 500mg/single dose"
					}
				]
			}
		},
		{
			"fullUrl": "http://example.org/Specimen/7327856d-e043-4ec2-b1b5-66674f270261",
			"resource": {
				"resourceType": "Specimen",
				"id": "7327856d-e043-4ec2-b1b5-66674f270261",
				"meta": {
					"profile": [
						"http://hl7.org/fhir/us/ph-library/StructureDefinition/us-ph-specimen"
					]
				},
				"text": {
					"status": "generated",
					"div": "<div xmlns=\"http://www.w3.org/1999/xhtml\">This is a simple narrative with only plain text</div>"
				},
				"type": {
					"coding": [
						{
							"system": "http://terminology.hl7.org/CodeSystem/v2-0487",
							"code": "GENV",
							"display": "Genital vaginal"
						}
					]
				},
				"subject": {
					"reference": "Patient/6aee18ca-936a-4da5-8853-7823cd02646f"
				}
			}
		},
		{
			"fullUrl": "http://example.org/Observation/40507166-b454-4e0e-b186-d848af72704d",
			"resource": {
				"resourceType": "Observation",
				"id": "40507166-b454-4e0e-b186-d848af72704d",
				"meta": {
					"profile": [
						"http://hl7.org/fhir/us/ph-library/StructureDefinition/us-ph-lab-result-observation"
					]
				},
				"text": {
					"status": "generated",
					"div": "<div xmlns=\"http://www.w3.org/1999/xhtml\">This is a simple narrative with only plain text</div>"
				},
				"status": "final",
				"category": [
					{
						"coding": [
							{
								"system": "http://terminology.hl7.org/CodeSystem/observation-category",
								"code": "laboratory",
								"display": "Laboratory"
							}
						]
					}
				],
				"code": {
					"coding": [
						{
							"system": "http://loinc.org",
							"code": "21415-5",
							"display": "Neisseria gonorrhoeae DNA [Presence] in Urethra by NAA with probe detection"
						}
					]
				},
				"subject": {
					"reference": "Patient/6aee18ca-936a-4da5-8853-7823cd02646f"
				},
				"encounter": {
					"reference": "Encounter/6791cfd9-e012-43e4-a1b0-bc4f6638f47a"
				},
				"effectiveDateTime": "2024-07-09",
				"performer": [
					{
						"reference": "Practitioner/b2018008-6d71-4b5c-aad9-0d969270ffc5",
						"display": "Practitioner"
					}
				],
				"valueCodeableConcept": {
					"coding": [
						{
							"system": "http://snomed.info/sct",
							"code": "260373001",
							"display": "Detected"
						}
					]
				},
				"interpretation": [
					{
						"coding": [
							{
								"system": "http://terminology.hl7.org/CodeSystem/v3-ObservationInterpretation",
								"code": "POS",
								"display": "Positive"
							}
						]
					}
				],
				"specimen": {
					"reference": "Specimen/7327856d-e043-4ec2-b1b5-66674f270261"
				}
			}
		},
		{
			"fullUrl": "http://example.org/Observation/521e5fff-04f2-4408-a0e3-a08444c39f56",
			"resource": {
				"resourceType": "Observation",
				"id": "521e5fff-04f2-4408-a0e3-a08444c39f56",
				"meta": {
					"profile": [
						"http://hl7.org/fhir/us/ph-library/StructureDefinition/us-ph-pregnancy-status-observation"
					]
				},
				"text": {
					"status": "generated",
					"div": "<div xmlns=\"http://www.w3.org/1999/xhtml\">This is a simple narrative with only plain text</div>"
				},
				"status": "final",
				"category": [
					{
						"coding": [
							{
								"system": "http://terminology.hl7.org/CodeSystem/observation-category",
								"code": "social-history",
								"display": "Social History"
							}
						]
					}
				],
				"code": {
					"coding": [
						{
							"system": "http://loinc.org",
							"code": "82810-3",
							"display": "Pregnancy status"
						}
					],
					"text": "Pregnancy status"
				},
				"subject": {
					"reference": "Patient/6aee18ca-936a-4da5-8853-7823cd02646f"
				},
				"effectiveDateTime": "2024-09-03T03:55:18.898385+00:00",
				"performer": [
					{
						"reference": "Practitioner/b2018008-6d71-4b5c-aad9-0d969270ffc5",
						"display": "Practitioner"
					}
				],
				"valueCodeableConcept": {
					"coding": [
						{
							"system": "http://snomed.info/sct",
							"code": "60001007",
							"display": "Not pregnant (finding)"
						}
					],
					"text": "Not pregnant (finding)"
				}
			}
		}
	]
}