{
	"resourceType": "Bundle",
	"id": "6cc4ca7f-f9bf-445f-999f-86eaa2e180ae",
	"meta": {
		"profile": [
			"http://hl7.org/fhir/us/ph-library/StructureDefinition/us-ph-content-bundle"
		]
	},
	"type": "collection",
	"entry": [
		{
			"fullUrl": "http://example.org/fhir/Patient/f288c654-6885-4f48-999c-48d776dc06af",
			"resource": {
				"resourceType": "Patient",
				"id": "f288c654-6885-4f48-999c-48d776dc06af",
				"meta": {
					"profile": [
						"http://hl7.org/fhir/us/ph-library/StructureDefinition/us-ph-patient"
					]
				},
				"text": {
					"status": "generated",
					"div": "<div xmlns=\"http://www.w3.org/1999/xhtml\">This is a simple narrative with only plain text</div>"
				},
				"extension": [
					{
						"extension": [
							{
								"url": "ombCategory",
								"valueCoding": {
									"system": "urn:oid:2.16.840.1.113883.6.238",
									"code": "2106-3",
									"display": "White"
								}
							},
							{
								"url": "text",
								"valueString": "Mixed"
							}
						],
						"url": "http://hl7.org/fhir/us/core/StructureDefinition/us-core-race"
					},
					{
						"extension": [
							{
								"url": "ombCategory",
								"valueCoding": {
									"system": "urn:oid:2.16.840.1.113883.6.238",
									"code": "2135-2",
									"display": "Hispanic or Latino"
								}
							},
							{
								"url": "text",
								"valueString": "Hispanic or Latino"
							}
						],
						"url": "http://hl7.org/fhir/us/core/StructureDefinition/us-core-ethnicity"
					},
					{
						"url": "http://hl7.org/fhir/us/core/StructureDefinition/us-core-birthsex",
						"valueCode": "M"
					},
					{
						"extension": [
							{
								"url": "tribalAffiliation",
								"valueCodeableConcept": {
									"coding": [
										{
											"system": "http://terminology.hl7.org/CodeSystem/v3-TribalEntityUS",
											"code": "91",
											"display": "Fort Mojave Indian Tribe of Arizona, California & Nevada"
										}
									]
								}
							},
							{
								"url": "isEnrolled",
								"valueBoolean": true
							}
						],
						"url": "http://hl7.org/fhir/us/core/StructureDefinition/us-core-tribal-affiliation"
					}
				],
				"identifier": [
					{
						"use": "usual",
						"type": {
							"coding": [
								{
									"system": "http://terminology.hl7.org/CodeSystem/v2-0203",
									"code": "MR",
									"display": "Medical Record Number"
								}
							],
							"text": "Medical Record Number"
						},
						"system": "http://hospital.smarthealthit.org",
						"value": "8692756",
						"assigner": {
							"display": "St. Worrywart’s Hospital"
						}
					},
					{
						"use": "usual",
						"type": {
							"coding": [
								{
									"system": "http://terminology.hl7.org/CodeSystem/v2-0203",
									"code": "DL",
									"display": "Driver's license number"
								}
							],
							"text": "Driver's license number"
						},
						"system": "http://dmv.gov",
						"value": "DL12345",
						"assigner": {
							"display": "Michigan"
						}
					}
				],
				"active": true,
				"name": [
					{
						"family": "Unlucky",
						"given": [
							"Hyper",
							"A."
						],
						"period": {
							"start": "1975-12-06",
							"end": "2020-01-22"
						}
					}
				],
				"telecom": [
					{
						"system": "phone",
						"value": "517-425-1398",
						"use": "home"
					},
					{
						"system": "email",
						"value": "hyper.unlucky@email.com"
					}
				],
				"gender": "male",
				"birthDate": "1975-12-06",
				"deceasedBoolean": false,
				"address": [
					{
						"line": [
							"49 Meadow St"
						],
						"city": "Lansing",
						"state": "MI",
						"postalCode": "48864",
						"country": "US",
						"period": {
							"start": "2016-12-06",
							"end": "2020-07-22"
						}
					},
					{
						"line": [
							"183 Mountain View St"
						],
						"city": "Lansing",
						"state": "MI",
						"postalCode": "48901",
						"country": "US",
						"period": {
							"start": "2020-07-22"
						}
					}
				],
				"communication": [
					{
						"language": {
							"coding": [
								{
									"system": "urn:ietf:bcp:47",
									"code": "en",
									"display": "English"
								}
							]
						}
					}
				]
			}
		},
		{
			"fullUrl": "http://example.org/fhir/Practitioner/8085737b-28ec-4b23-8604-83fd20076933",
			"resource": {
				"resourceType": "Practitioner",
				"id": "8085737b-28ec-4b23-8604-83fd20076933",
				"meta": {
					"profile": [
						"http://hl7.org/fhir/us/core/StructureDefinition/us-core-practitioner"
					]
				},
				"text": {
					"status": "generated",
					"div": "<div xmlns=\"http://www.w3.org/1999/xhtml\">This is a simple narrative with only plain text</div>"
				},
				"identifier": [
					{
						"system": "http://hl7.org.fhir/sid/us-npi",
						"value": "1948792758"
					},
					{
						"system": "http://www.acme.org/practitioners",
						"value": "25647"
					}
				],
				"name": [
					{
						"family": "Pocondriac",
						"given": [
							"Hai"
						],
						"prefix": [
							"Dr"
						]
					}
				],
				"address": [
					{
						"use": "home",
						"line": [
							"4531 Marketplace Drive"
						],
						"city": "Lansing",
						"state": "MI",
						"postalCode": "48893"
					}
				]
			}
		},
		{
			"fullUrl": "http://example.org/fhir/PractitionerRole/d0e6a570-9d65-40ca-884a-60f6dcc252cb",
			"resource": {
				"resourceType": "PractitionerRole",
				"id": "d0e6a570-9d65-40ca-884a-60f6dcc252cb",
				"meta": {
					"profile": [
						"http://hl7.org/fhir/us/ph-library/StructureDefinition/us-ph-practitionerrole"
					]
				},
				"text": {
					"status": "generated",
					"div": "<div xmlns=\"http://www.w3.org/1999/xhtml\">This is a simple narrative with only plain text</div>"
				},
				"identifier": [
					{
						"system": "http://hl7.org/fhir/sid/us-npi",
						"value": "1948792758"
					}
				],
				"practitioner": {
					"reference": "Practitioner/8085737b-28ec-4b23-8604-83fd20076933"
				},
				"organization": {
					"reference": "Organization/cc8a572b-0ae5-4497-97cf-bab563cbb131"
				},
				"code": [
					{
						"coding": [
							{
								"system": "http://nucc.org/provider-taxonomy",
								"code": "261QP2300X",
								"display": "Primary Care Clinic/Center"
							}
						]
					}
				],
				"specialty": [
					{
						"coding": [
							{
								"system": "http://snomed.info/sct",
								"code": "419772000",
								"display": "Family practice"
							}
						]
					}
				],
				"location": [
					{
						"reference": "Location/d1636409-8269-4758-9130-20daf48d02f6",
						"display": "Salem Medical Center"
					}
				],
				"telecom": [
					{
						"system": "email",
						"value": "hai.pocondriac@example.org"
					}
				]
			}
		},
		{
			"fullUrl": "http://example.org/fhir/Practitioner/6f4677c7-3b94-43a1-bbd3-fce826b73dcb",
			"resource": {
				"resourceType": "Practitioner",
				"id": "6f4677c7-3b94-43a1-bbd3-fce826b73dcb",
				"meta": {
					"profile": [
						"http://hl7.org/fhir/us/core/StructureDefinition/us-core-practitioner"
					]
				},
				"text": {
					"status": "generated",
					"div": "<div xmlns=\"http://www.w3.org/1999/xhtml\">This is a simple narrative with only plain text</div>"
				},
				"identifier": [
					{
						"system": "http://hl7.org.fhir/sid/us-npi",
						"value": "1948792759"
					},
					{
						"system": "http://www.acme.org/practitioners",
						"value": "25647"
					}
				],
				"name": [
					{
						"family": "Core",
						"given": [
							"US"
						],
						"prefix": [
							"Dr"
						]
					}
				],
				"address": [
					{
						"use": "home",
						"line": [
							"5151 Marketplace Drive"
						],
						"city": "Lansing",
						"state": "MI",
						"postalCode": "48893"
					}
				]
			}
		},
		{
			"fullUrl": "http://example.org/fhir/PractitionerRole/6baea747-1303-4209-bd78-514ce7917bf6",
			"resource": {
				"resourceType": "PractitionerRole",
				"id": "6baea747-1303-4209-bd78-514ce7917bf6",
				"meta": {
					"profile": [
						"http://hl7.org/fhir/us/core/StructureDefinition/us-core-practitionerrole"
					]
				},
				"text": {
					"status": "generated",
					"div": "<div xmlns=\"http://www.w3.org/1999/xhtml\">This is a simple narrative with only plain text</div>"
				},
				"identifier": [
					{
						"system": "http://hl7.org/fhir/sid/us-npi",
						"value": "1948792759"
					}
				],
				"practitioner": {
					"reference": "Practitioner/6f4677c7-3b94-43a1-bbd3-fce826b73dcb"
				},
				"organization": {
					"reference": "Organization/cc8a572b-0ae5-4497-97cf-bab563cbb131"
				},
				"code": [
					{
						"coding": [
							{
								"system": "http://nucc.org/provider-taxonomy",
								"code": "261QP2300X",
								"display": "Primary Care Clinic/Center"
							}
						]
					}
				],
				"specialty": [
					{
						"coding": [
							{
								"system": "http://snomed.info/sct",
								"code": "419772000",
								"display": "Family practice"
							}
						]
					}
				],
				"telecom": [
					{
						"system": "email",
						"value": "hai.pocondriac@example.org"
					}
				]
			}
		},
		{
			"fullUrl": "http://example.org/fhir/Organization/cc8a572b-0ae5-4497-97cf-bab563cbb131",
			"resource": {
				"resourceType": "Organization",
				"id": "cc8a572b-0ae5-4497-97cf-bab563cbb131",
				"meta": {
					"profile": [
						"http://hl7.org/fhir/us/ph-library/StructureDefinition/us-ph-organization"
					]
				},
				"text": {
					"status": "generated",
					"div": "<div xmlns=\"http://www.w3.org/1999/xhtml\">This is a simple narrative with only plain text</div>"
				},
				"identifier": [
					{
						"system": "http://hl7.org.fhir/sid/us-npi",
						"value": "6497258403"
					},
					{
						"system": "http://www.acme.org/organization",
						"value": "3497521864"
					}
				],
				"active": true,
				"type": [
					{
						"coding": [
							{
								"system": "http://terminology.hl7.org/CodeSystem/organization-type",
								"code": "prov",
								"display": "Healthcare Provider"
							}
						]
					}
				],
				"name": "Better Health Community Medical Center",
				"telecom": [
					{
						"system": "phone",
						"value": "(+1) 734-677-7777"
					},
					{
						"system": "email",
						"value": "betterhealthcommunitymedicalcenter@acme.org"
					},
					{
						"system": "phone",
						"value": "(+1) 734-677-7777"
					}
				],
				"address": [
					{
						"line": [
							"2034 West Main St"
						],
						"city": "Hamersville",
						"state": "OH",
						"postalCode": "45130",
						"country": "USA"
					}
				]
			}
		},
		{
			"fullUrl": "http://example.org/fhir/Condition/c7ae0606-d0df-4ffd-a535-91697eabf9d5",
			"resource": {
				"resourceType": "Condition",
				"id": "c7ae0606-d0df-4ffd-a535-91697eabf9d5",
				"meta": {
					"profile": [
						"http://hl7.org/fhir/us/ph-library/StructureDefinition/us-ph-condition-encounter-diagnosis"
					]
				},
				"text": {
					"status": "generated",
					"div": "<div xmlns=\"http://www.w3.org/1999/xhtml\">This is a simple narrative with only plain text</div>"
				},
				"category": [
					{
						"coding": [
							{
								"system": "http://terminology.hl7.org/CodeSystem/condition-category",
								"code": "encounter-diagnosis",
								"display": "Encounter Diagnosis"
							}
						],
						"text": "Encounter Diagnosis"
					}
				],
				"code": {
					"coding": [
						{
							"system": "http://hl7.org/fhir/sid/icd-10-cm",
							"code": "A74.9",
							"display": "Chlamydial infection, unspecified"
						}
					],
					"text": "Chlamydial infection, unspecified"
				},
				"subject": {
					"reference": "Patient/f288c654-6885-4f48-999c-48d776dc06af",
					"type": "Patient"
				},
				"onsetDateTime": "2021-09-11T17:43:27.663+00:00"
			}
		},
		{
			"fullUrl": "http://example.org/fhir/Observation/0a33326b-fbf2-4a59-a785-ad9ba5c40ce0",
			"resource": {
				"resourceType": "Observation",
				"id": "0a33326b-fbf2-4a59-a785-ad9ba5c40ce0",
				"meta": {
					"profile": [
						"http://hl7.org/fhir/us/ph-library/StructureDefinition/us-ph-lab-result-observation"
					]
				},
				"text": {
					"status": "generated",
					"div": "<div xmlns=\"http://www.w3.org/1999/xhtml\">This is a simple narrative with only plain text</div>"
				},
				"identifier": [
					{
						"use": "official",
						"system": "http://www.bmc.nl/zorgportal/identifiers/observations",
						"value": "6327"
					}
				],
				"status": "final",
				"category": [
					{
						"coding": [
							{
								"system": "http://terminology.hl7.org/CodeSystem/observation-category",
								"code": "laboratory",
								"display": "Laboratory"
							}
						],
						"text": "Laboratory"
					}
				],
				"code": {
					"coding": [
						{
							"system": "http://loinc.org",
							"code": "6690-2",
							"display": "Leukocytes [#/volume] in Blood by Automated count"
						}
					],
					"text": "WBCs"
				},
				"subject": {
					"reference": "Patient/f288c654-6885-4f48-999c-48d776dc06af",
					"display": "Hyper A Unlucky"
				},
				"issued": "2023-12-15T14:09:35-05:00",
				"performer": [
					{
						"reference": "Practitioner/8085737b-28ec-4b23-8604-83fd20076933",
						"type": "Practitioner"
					}
				],
				"valueQuantity": {
					"value": 10,
					"unit": "10*3/uL",
					"system": "http://unitsofmeasure.org"
				},
				"referenceRange": [
					{
						"low": {
							"value": 4.5,
							"unit": "10*3/uL",
							"system": "http://unitsofmeasure.org",
							"code": "10*3/uL"
						},
						"high": {
							"value": 11,
							"unit": "10*3/uL",
							"system": "http://unitsofmeasure.org",
							"code": "10*3/uL"
						},
						"type": {
							"coding": [
								{
									"system": "http://terminology.hl7.org/CodeSystem/referencerange-meaning",
									"code": "normal",
									"display": "Normal Range"
								}
							],
							"text": "Normal Range"
						}
					}
				]
			}
		},
		{
			"fullUrl": "http://example.org/fhir/Observation/606c78ab-b778-4ad2-8db2-b2e205f15c41",
			"resource": {
				"resourceType": "Observation",
				"id": "606c78ab-b778-4ad2-8db2-b2e205f15c41",
				"meta": {
					"profile": [
						"http://hl7.org/fhir/us/ph-library/StructureDefinition/us-ph-lab-result-observation"
					]
				},
				"text": {
					"status": "generated",
					"div": "<div xmlns=\"http://www.w3.org/1999/xhtml\">This is a simple narrative with only plain text</div>"
				},
				"status": "final",
				"category": [
					{
						"coding": [
							{
								"system": "http://terminology.hl7.org/CodeSystem/observation-category",
								"code": "laboratory",
								"display": "Laboratory"
							}
						],
						"text": "Laboratory"
					}
				],
				"code": {
					"coding": [
						{
							"system": "http://loinc.org",
							"code": "24111-7",
							"display": "Neisseria gonorrhoeae DNA [Presence] in Specimen by NAA with probe detection"
						}
					],
					"text": "Neisseria gonorrhoeae DNA [Presence] in Specimen by NAA with probe detection"
				},
				"subject": {
					"reference": "Patient/f288c654-6885-4f48-999c-48d776dc06af"
				},
				"effectiveDateTime": "2000-01-04",
				"performer": [
					{
						"reference": "Practitioner/8085737b-28ec-4b23-8604-83fd20076933",
						"type": "Practitioner"
					}
				],
				"valueCodeableConcept": {
					"coding": [
						{
							"system": "http://snomed.info/sct",
							"code": "260373001",
							"display": "Detected"
						}
					],
					"text": "Detected"
				},
				"interpretation": [
					{
						"coding": [
							{
								"system": "http://terminology.hl7.org/CodeSystem/v3-ObservationInterpretation",
								"code": "DET",
								"display": "Detected"
							}
						],
						"text": "Detected"
					}
				]
			}
		},
		{
			"fullUrl": "http://example.org/fhir/Coverage/d91140ee-684a-487e-894f-2791f82e1888",
			"resource": {
				"resourceType": "Coverage",
				"id": "d91140ee-684a-487e-894f-2791f82e1888",
				"meta": {
					"profile": [
						"http://hl7.org/fhir/us/core/StructureDefinition/us-core-coverage"
					]
				},
				"text": {
					"status": "generated",
					"div": "<div xmlns=\"http://www.w3.org/1999/xhtml\">This is a simple narrative with only plain text</div>"
				},
				"identifier": [
					{
						"type": {
							"coding": [
								{
									"system": "http://terminology.hl7.org/CodeSystem/v2-0203",
									"code": "MB",
									"display": "Member Number"
								}
							]
						},
						"system": "http://better.health.insurance.com/plan",
						"value": "88800933501"
					},
					{
						"system": "http://better.health.insurance.com/plan",
						"value": "d96030446269cb1e0a862d36237"
					}
				],
				"status": "active",
				"type": {
					"coding": [
						{
							"system": "http://terminology.hl7.org/CodeSystem/v3-ActCode",
							"code": "PPO",
							"display": "preferred provider organization policy"
						}
					]
				},
				"policyHolder": {
					"display": "Moderately Unlucky"
				},
				"subscriber": {
					"display": "Moderately Unlucky"
				},
				"beneficiary": {
					"reference": "Patient/f288c654-6885-4f48-999c-48d776dc06af",
					"type": "Patient"
				},
				"relationship": {
					"coding": [
						{
							"system": "http://hl7.org/fhir/relationship",
							"code": "1",
							"display": "Self"
						}
					]
				},
				"period": {
					"start": "2018-11-04",
					"end": "2019-11-04"
				},
				"payor": [
					{
						"reference": "Organization/cc8a572b-0ae5-4497-97cf-bab563cbb131",
						"type": "Organization"
					}
				],
				"order": 1
			}
		},
		{
			"fullUrl": "http://example.org/fhir/Account/6443687a-442e-4737-a247-c08c7bb3179c",
			"resource": {
				"resourceType": "Account",
				"id": "6443687a-442e-4737-a247-c08c7bb3179c",
				"identifier": [
					{
						"system": "http://iol.health.com/Account",
						"value": "d96030446269cb1e0a862d"
					}
				],
				"status": "active",
				"type": {
					"coding": [
						{
							"system": "http://terminology.hl7.org/CodeSystem/v3-ActCode",
							"code": "PBILLACCT",
							"display": "patient billing account"
						}
					]
				},
				"subject": [
					{
						"reference": "Patient/f288c654-6885-4f48-999c-48d776dc06af",
						"type": "Patient"
					}
				],
				"servicePeriod": {
					"start": "2020-03-04",
					"end": "2020-03-04"
				},
				"coverage": [
					{
						"coverage": {
							"reference": "Coverage/d91140ee-684a-487e-894f-2791f82e1888"
						},
						"priority": 6
					}
				],
				"owner": {
					"reference": "Organization/cc8a572b-0ae5-4497-97cf-bab563cbb131",
					"type": "Organization"
				},
				"guarantor": [
					{
						"party": {
							"reference": "Patient/f288c654-6885-4f48-999c-48d776dc06af",
							"type": "Patient"
						},
						"period": {
							"start": "2020-03-04",
							"end": "2020-03-08"
						}
					}
				]
			}
		},
		{
			"fullUrl": "http://example.org/fhir/Encounter/42eede74-6328-44e4-8dcf-fd9f4057b464",
			"resource": {
				"resourceType": "Encounter",
				"id": "42eede74-6328-44e4-8dcf-fd9f4057b464",
				"meta": {
					"profile": [
						"http://hl7.org/fhir/us/ph-library/StructureDefinition/us-ph-encounter"
					]
				},
				"text": {
					"status": "generated",
					"div": "<div xmlns=\"http://www.w3.org/1999/xhtml\">This is a simple narrative with only plain text</div>"
				},
				"identifier": [
					{
						"system": "http://better.health.insurance.com/Encounter",
						"value": "42eede74-6328-44e4-8dcf-fd9f4057b464"
					}
				],
				"status": "in-progress",
				"class": {
					"system": "http://terminology.hl7.org/CodeSystem/service-type",
					"code": "441",
					"display": "Sexually Transmitted"
				},
				"type": [
					{
						"coding": [
							{
								"system": "http://www.ama-assn.org/go/cpt",
								"code": "99202"
							}
						],
						"text": "Office Visit"
					}
				],
				"subject": {
					"reference": "Patient/f288c654-6885-4f48-999c-48d776dc06af",
					"type": "Patient"
				},
				"participant": [
					{
						"period": {
							"start": "2020-03-02",
							"end": "2020-03-03"
						},
						"individual": {
							"reference": "Practitioner/8085737b-28ec-4b23-8604-83fd20076933",
							"type": "Practitioner"
						}
					}
				],
				"period": {
					"start": "2024-03-11",
					"end": "2024-04-11"
				},
				"reasonCode": [
					{
						"coding": [
							{
								"system": "http://snomed.info/sct",
								"code": "2339001",
								"display": "Sexual overexposure"
							}
						],
						"text": "Sexual overexposure"
					}
				],
				"reasonReference": [
					{
						"reference": "Condition/c7ae0606-d0df-4ffd-a535-91697eabf9d5",
						"type": "Condition"
					}
				],
				"diagnosis": [
					{
						"condition": {
							"reference": "Condition/c7ae0606-d0df-4ffd-a535-91697eabf9d5",
							"type": "Condition"
						}
					}
				],
				"account": [
					{
						"reference": "Account/6443687a-442e-4737-a247-c08c7bb3179c",
						"type": "Account"
					}
				],
				"location": [
					{
						"location": {
							"reference": "Location/d1636409-8269-4758-9130-20daf48d02f6",
							"display": "Clinic Bldg A, Salem Medical Center, 4444 Healthcare Drive, Ann Arbor MI, 99999"
						}
					}
				]
			}
		},
		{
			"fullUrl": "http://example.org/fhir/Location/d1636409-8269-4758-9130-20daf48d02f6",
			"resource": {
				"resourceType": "Location",
				"id": "d1636409-8269-4758-9130-20daf48d02f6",
				"meta": {
					"profile": [
						"http://hl7.org/fhir/us/ph-library/StructureDefinition/us-ph-location"
					]
				},
				"text": {
					"status": "generated",
					"div": "<div xmlns=\"http://www.w3.org/1999/xhtml\">This is a simple narrative with only plain text</div>"
				},
				"identifier": [
					{
						"system": "http://hl7.org/fhir/sid/us-npi",
						"value": "1063494177"
					}
				],
				"status": "active",
				"name": "Clinic Bldg A, Salem Medical Center",
				"type": [
					{
						"coding": [
							{
								"system": "http://terminology.hl7.org/CodeSystem/v3-RoleCode",
								"code": "HOSP",
								"display": "Hospital"
							}
						]
					}
				],
				"telecom": [
					{
						"system": "phone",
						"value": "(+1) (555)555-3001"
					},
					{
						"system": "fax",
						"value": "(+1) (555)555-3002"
					},
					{
						"system": "email",
						"value": "mail@smc.org"
					}
				],
				"address": {
					"line": [
						"Clinic Bldg A",
						"4444 Healthcare Drive"
					],
					"city": "Ann Arbor",
					"state": "MI",
					"postalCode": "99999"
				},
				"managingOrganization": {
					"reference": "Organization/cc8a572b-0ae5-4497-97cf-bab563cbb131"
				}
			}
		},
		{
			"fullUrl": "http://example.org/fhir/Condition/c989f4f5-8416-48ae-b8ba-e0505656b453",
			"resource": {
				"resourceType": "Condition",
				"id": "c989f4f5-8416-48ae-b8ba-e0505656b453",
				"meta": {
					"profile": [
						"http://hl7.org/fhir/us/ph-library/StructureDefinition/us-ph-condition-problems-health-concerns"
					]
				},
				"text": {
					"status": "generated",
					"div": "<div xmlns=\"http://www.w3.org/1999/xhtml\">This is a simple narrative with only plain text</div>"
				},
				"clinicalStatus": {
					"coding": [
						{
							"system": "http://terminology.hl7.org/CodeSystem/condition-clinical",
							"code": "active",
							"display": "Active"
						}
					]
				},
				"verificationStatus": {
					"coding": [
						{
							"system": "http://terminology.hl7.org/CodeSystem/condition-ver-status",
							"code": "confirmed",
							"display": "Confirmed"
						}
					]
				},
				"category": [
					{
						"coding": [
							{
								"system": "http://terminology.hl7.org/CodeSystem/condition-category",
								"code": "problem-list-item"
							}
						]
					}
				],
				"code": {
					"coding": [
						{
							"system": "http://snomed.info/sct",
							"code": "92814006",
							"display": "Chronic lymphoid leukemia, disease (disorder)"
						}
					]
				},
				"subject": {
					"reference": "Patient/f288c654-6885-4f48-999c-48d776dc06af"
				},
				"onsetDateTime": "2023-11-12T00:00:00Z",
				"asserter": {
					"reference": "Practitioner/8085737b-28ec-4b23-8604-83fd20076933"
				},
				"stage": [
					{
						"summary": {
							"coding": [
								{
									"system": "http://terminology.hl7.org/CodeSystem/umls",
									"code": "C2698392",
									"display": "Binet Stage A"
								}
							]
						},
						"assessment": [
							{
								"reference": "Observation/606c78ab-b778-4ad2-8db2-b2e205f15c41"
							}
						]
					}
				]
			}
		},
		{
			"fullUrl": "http://example.org/fhir/MedicationRequest/aedbbe7e-3496-4366-883e-34aab9841fa3",
			"resource": {
				"resourceType": "MedicationRequest",
				"id": "aedbbe7e-3496-4366-883e-34aab9841fa3",
				"meta": {
					"profile": [
						"http://hl7.org/fhir/us/core/StructureDefinition/us-core-medicationrequest"
					]
				},
				"text": {
					"status": "generated",
					"div": "<div xmlns=\"http://www.w3.org/1999/xhtml\">This is a simple narrative with only plain text</div>"
				},
				"status": "active",
				"intent": "order",
				"medicationCodeableConcept": {
					"coding": [
						{
							"system": "http://www.nlm.nih.gov/research/umls/rxnorm",
							"code": "828265",
							"display": "1 ML alemtuzumab 30 MG/ML Injection"
						}
					],
					"text": "1 ML alemtuzumab 30 MG/ML Injection"
				},
				"subject": {
					"reference": "Patient/f288c654-6885-4f48-999c-48d776dc06af",
					"display": "Hyper Unlucky"
				},
				"authoredOn": "2023-11-18",
				"requester": {
					"reference": "Practitioner/8085737b-28ec-4b23-8604-83fd20076933",
					"display": "Practitioner"
				},
				"dosageInstruction": [
					{
						"text": "1 mL injection",
						"timing": {
							"repeat": {
								"boundsPeriod": {
									"start": "2023-11-18"
								}
							}
						}
					}
				],
				"dispenseRequest": {
					"numberOfRepeatsAllowed": 1,
					"quantity": {
						"value": 1,
						"unit": "mL",
						"system": "http://unitsofmeasure.org",
						"code": "mL"
					},
					"expectedSupplyDuration": {
						"value": 1,
						"unit": "days",
						"system": "http://unitsofmeasure.org",
						"code": "d"
					}
				}
			}
		},
		{
			"fullUrl": "http://example.org/fhir/Encounter/60b85a79-8f6e-4fb3-ae37-b2ec79b34e82",
			"resource": {
				"resourceType": "Encounter",
				"id": "60b85a79-8f6e-4fb3-ae37-b2ec79b34e82",
				"meta": {
					"profile": [
						"http://hl7.org/fhir/us/ph-library/StructureDefinition/us-ph-encounter"
					]
				},
				"text": {
					"status": "generated",
					"div": "<div xmlns=\"http://www.w3.org/1999/xhtml\">This is a simple narrative with only plain text</div>"
				},
				"status": "finished",
				"class": {
					"system": "http://terminology.hl7.org/CodeSystem/v3-ActCode",
					"code": "ACUTE",
					"display": "inpatient acute"
				},
				"type": [
					{
						"coding": [
							{
								"system": "http://www.ama-assn.org/go/cpt",
								"code": "99242"
							}
						],
						"text": "Consultation in Chemotherapy"
					}
				],
				"subject": {
					"reference": "Patient/f288c654-6885-4f48-999c-48d776dc06af"
				},
				"period": {
					"start": "2023-11-17T17:00:14-05:00",
					"end": "2023-11-17T18:00:14-05:00"
				},
				"location": [
					{
						"location": {
							"reference": "Location/d1636409-8269-4758-9130-20daf48d02f6",
							"display": "Clinic Bldg A, Salem Medical Center, 4444 Healthcare Drive, Ann Arbor MI, 99999"
						}
					}
				]
			}
		},
		{
			"fullUrl": "http://example.org/fhir/MedicationAdministration/dfa9a326-b056-4ec1-89bf-2a04a36af86b",
			"resource": {
				"resourceType": "MedicationAdministration",
				"id": "dfa9a326-b056-4ec1-89bf-2a04a36af86b",
				"meta": {
					"profile": [
						"http://hl7.org/fhir/us/ph-library/StructureDefinition/us-ph-medicationadministration"
					]
				},
				"text": {
					"status": "generated",
					"div": "<div xmlns=\"http://www.w3.org/1999/xhtml\">This is a simple narrative with only plain text</div>"
				},
				"contained": [
					{
						"resourceType": "Medication",
						"id": "4C",
						"code": {
							"coding": [
								{
									"system": "http://www.nlm.nih.gov/research/umls/rxnorm",
									"code": "828265",
									"display": "1 ML alemtuzumab 30 MG/ML Injection"
								}
							]
						}
					}
				],
				"status": "completed",
				"medicationReference": {
					"reference": "#4C"
				},
				"subject": {
					"reference": "Patient/f288c654-6885-4f48-999c-48d776dc06af",
					"display": "Hyper Unlucky"
				},
				"context": {
					"reference": "Encounter/60b85a79-8f6e-4fb3-ae37-b2ec79b34e82",
					"display": "encounter who leads to this prescription"
				},
				"effectivePeriod": {
					"start": "2023-11-18T04:30:00+01:00",
					"end": "2023-11-18T14:30:00+01:00"
				},
				"performer": [
					{
						"actor": {
							"reference": "Practitioner/8085737b-28ec-4b23-8604-83fd20076933",
							"display": "Practitioner"
						}
					}
				],
				"reasonReference": [
					{
						"reference": "Condition/c989f4f5-8416-48ae-b8ba-e0505656b453"
					}
				],
				"request": {
					"reference": "MedicationRequest/aedbbe7e-3496-4366-883e-34aab9841fa3"
				},
				"dosage": {
					"text": "Rapid daily-dose escalation, until tolerated, from 3 mg/d, and then 10 mg/d, to the recommended maintenance dose of 30 mg IV over 120 min, 3 times per wk on alternate days for up to 12 wk",
					"route": {
						"coding": [
							{
								"system": "http://snomed.info/sct",
								"code": "47625008",
								"display": "Intravenous route (qualifier value)"
							}
						]
					},
					"method": {
						"coding": [
							{
								"system": "http://snomed.info/sct",
								"code": "422145002",
								"display": "Inject - dosing instruction imperative (qualifier value)"
							}
						]
					},
					"dose": {
						"value": 3,
						"unit": "mg",
						"system": "http://unitsofmeasure.org",
						"code": "mg"
					}
				}
			}
		},
		{
			"fullUrl": "http://example.org/fhir/Account/54375c99-189d-4e4d-90c5-36cc4278a36c",
			"resource": {
				"resourceType": "Account",
				"id": "54375c99-189d-4e4d-90c5-36cc4278a36c",
				"identifier": [
					{
						"system": "http://iol.health.com/Account",
						"value": "d96030446269cb1e0a862d"
					}
				],
				"status": "active",
				"type": {
					"coding": [
						{
							"system": "http://terminology.hl7.org/CodeSystem/v3-ActCode",
							"code": "PBILLACCT",
							"display": "patient billing account"
						}
					]
				},
				"subject": [
					{
						"reference": "Patient/f288c654-6885-4f48-999c-48d776dc06af",
						"type": "Patient"
					}
				],
				"servicePeriod": {
					"start": "2020-03-04",
					"end": "2020-03-04"
				},
				"coverage": [
					{
						"coverage": {
							"reference": "Coverage/d91140ee-684a-487e-894f-2791f82e1888"
						},
						"priority": 5
					}
				],
				"owner": {
					"reference": "Organization/cc8a572b-0ae5-4497-97cf-bab563cbb131",
					"type": "Organization"
				},
				"guarantor": [
					{
						"party": {
							"reference": "Patient/f288c654-6885-4f48-999c-48d776dc06af",
							"type": "Patient"
						},
						"period": {
							"start": "2020-03-04",
							"end": "2020-03-08"
						}
					}
				]
			}
		},
		{
			"fullUrl": "http://example.org/fhir/Account/10f8bd6b-1c50-4c98-aab2-62ae25376952",
			"resource": {
				"resourceType": "Account",
				"id": "10f8bd6b-1c50-4c98-aab2-62ae25376952",
				"identifier": [
					{
						"system": "http://iol.health.com/Account",
						"value": "d96030446269cb1e0a862d"
					}
				],
				"status": "active",
				"type": {
					"coding": [
						{
							"system": "http://terminology.hl7.org/CodeSystem/v3-ActCode",
							"code": "PBILLACCT",
							"display": "patient billing account"
						}
					]
				},
				"subject": [
					{
						"reference": "Patient/f288c654-6885-4f48-999c-48d776dc06af",
						"type": "Patient"
					}
				],
				"servicePeriod": {
					"start": "2020-03-02",
					"end": "2020-03-03"
				},
				"coverage": [
					{
						"coverage": {
							"reference": "Coverage/d91140ee-684a-487e-894f-2791f82e1888"
						},
						"priority": 2
					}
				],
				"owner": {
					"reference": "Organization/cc8a572b-0ae5-4497-97cf-bab563cbb131",
					"type": "Organization"
				},
				"guarantor": [
					{
						"party": {
							"reference": "Patient/f288c654-6885-4f48-999c-48d776dc06af",
							"type": "Patient"
						},
						"period": {
							"start": "2020-03-02",
							"end": "2020-03-03"
						}
					}
				]
			}
		},
		{
			"fullUrl": "http://example.org/fhir/Procedure/8b9a9a37-4d83-4400-b32f-48f681fc2f88",
			"resource": {
				"resourceType": "Procedure",
				"id": "8b9a9a37-4d83-4400-b32f-48f681fc2f88",
				"meta": {
					"profile": [
						"http://hl7.org/fhir/us/core/StructureDefinition/us-core-procedure"
					]
				},
				"text": {
					"status": "generated",
					"div": "<div xmlns=\"http://www.w3.org/1999/xhtml\">This is a simple narrative with only plain text</div>"
				},
				"identifier": [
					{
						"value": "42eede74-6328-44e4-8dcf-fd9f4057b464"
					}
				],
				"status": "completed",
				"code": {
					"coding": [
						{
							"system": "http://www.ama-assn.org/go/cpt",
							"code": "90471",
							"display": "Immunization admin"
						}
					]
				},
				"subject": {
					"reference": "Patient/f288c654-6885-4f48-999c-48d776dc06af",
					"type": "Patient"
				},
				"encounter": {
					"reference": "Encounter/42eede74-6328-44e4-8dcf-fd9f4057b464",
					"type": "Encounter"
				},
				"performedDateTime": "2022-01-06T18:36:46.000+00:00",
				"recorder": {
					"reference": "Practitioner/8085737b-28ec-4b23-8604-83fd20076933",
					"type": "Practitioner"
				},
				"asserter": {
					"reference": "Practitioner/8085737b-28ec-4b23-8604-83fd20076933",
					"type": "Practitioner"
				},
				"performer": [
					{
						"actor": {
							"reference": "Practitioner/8085737b-28ec-4b23-8604-83fd20076933",
							"type": "Practitioner"
						}
					}
				],
				"reasonReference": [
					{
						"reference": "Condition/c7ae0606-d0df-4ffd-a535-91697eabf9d5",
						"type": "Condition"
					}
				]
			}
		},
		{
			"fullUrl": "http://example.org/fhir/Procedure/111aba60-cbb9-4ed2-881f-95c3c151851f",
			"resource": {
				"resourceType": "Procedure",
				"id": "111aba60-cbb9-4ed2-881f-95c3c151851f",
				"meta": {
					"profile": [
						"http://hl7.org/fhir/us/core/StructureDefinition/us-core-procedure"
					]
				},
				"text": {
					"status": "generated",
					"div": "<div xmlns=\"http://www.w3.org/1999/xhtml\">This is a simple narrative with only plain text</div>"
				},
				"identifier": [
					{
						"value": "d96030446269cb1e0a862d"
					}
				],
				"status": "completed",
				"code": {
					"coding": [
						{
							"system": "http://www.ama-assn.org/go/cpt",
							"code": "90687",
							"display": "Influenza virus vaccine, quadrivalent (IIV4), split virus, 0.25 mL dosage, for intramuscular use"
						}
					]
				},
				"subject": {
					"reference": "Patient/f288c654-6885-4f48-999c-48d776dc06af",
					"type": "Patient"
				},
				"encounter": {
					"reference": "Encounter/42eede74-6328-44e4-8dcf-fd9f4057b464",
					"type": "Encounter"
				},
				"performedDateTime": "2022-01-06T18:36:46.000+00:00",
				"recorder": {
					"reference": "Practitioner/8085737b-28ec-4b23-8604-83fd20076933",
					"type": "Practitioner"
				},
				"asserter": {
					"reference": "Practitioner/8085737b-28ec-4b23-8604-83fd20076933",
					"type": "Practitioner"
				},
				"performer": [
					{
						"actor": {
							"reference": "Practitioner/8085737b-28ec-4b23-8604-83fd20076933",
							"type": "Practitioner"
						}
					}
				],
				"reasonReference": [
					{
						"reference": "Condition/c7ae0606-d0df-4ffd-a535-91697eabf9d5",
						"type": "Condition"
					}
				]
			}
		},
		{
			"fullUrl": "http://example.org/fhir/Procedure/7c91296f-9417-45c2-b209-33850d3c3ffb",
			"resource": {
				"resourceType": "Procedure",
				"id": "7c91296f-9417-45c2-b209-33850d3c3ffb",
				"meta": {
					"profile": [
						"http://hl7.org/fhir/us/core/StructureDefinition/us-core-procedure"
					]
				},
				"text": {
					"status": "generated",
					"div": "<div xmlns=\"http://www.w3.org/1999/xhtml\">This is a simple narrative with only plain text</div>"
				},
				"identifier": [
					{
						"value": "d96030446269cb1e0a862d"
					}
				],
				"status": "completed",
				"code": {
					"coding": [
						{
							"system": "http://www.ama-assn.org/go/cpt",
							"code": "99392",
							"display": "Periodic comprehensive preventive medicine reevaluation and management of an individual including an age and gender appropriate history, examination, counseling/anticipatory guidance/risk factor reduction interventions, and the ordering of laboratory/diagnostic procedures, established patient; early childhood (age 1 through 4 years)"
						}
					]
				},
				"subject": {
					"reference": "Patient/f288c654-6885-4f48-999c-48d776dc06af",
					"type": "Patient"
				},
				"encounter": {
					"reference": "Encounter/42eede74-6328-44e4-8dcf-fd9f4057b464",
					"type": "Encounter"
				},
				"performedDateTime": "2022-01-06T18:36:46.000+00:00",
				"recorder": {
					"reference": "Practitioner/8085737b-28ec-4b23-8604-83fd20076933",
					"type": "Practitioner"
				},
				"asserter": {
					"reference": "Practitioner/8085737b-28ec-4b23-8604-83fd20076933",
					"type": "Practitioner"
				},
				"performer": [
					{
						"actor": {
							"reference": "Practitioner/8085737b-28ec-4b23-8604-83fd20076933",
							"type": "Practitioner"
						}
					}
				],
				"reasonReference": [
					{
						"reference": "Condition/c7ae0606-d0df-4ffd-a535-91697eabf9d5",
						"type": "Condition"
					}
				]
			}
		},
		{
			"fullUrl": "http://example.org/fhir/Procedure/a6ee979a-1531-492d-b594-315f03bf0c55",
			"resource": {
				"resourceType": "Procedure",
				"id": "a6ee979a-1531-492d-b594-315f03bf0c55",
				"meta": {
					"profile": [
						"http://hl7.org/fhir/us/core/StructureDefinition/us-core-procedure"
					]
				},
				"text": {
					"status": "generated",
					"div": "<div xmlns=\"http://www.w3.org/1999/xhtml\">This is a simple narrative with only plain text</div>"
				},
				"identifier": [
					{
						"value": "d96030446269cb1e0a862d"
					}
				],
				"status": "completed",
				"code": {
					"coding": [
						{
							"system": "http://www.ama-assn.org/go/cpt",
							"code": "90749",
							"display": "Unlisted vaccine/toxoid"
						}
					]
				},
				"subject": {
					"reference": "Patient/f288c654-6885-4f48-999c-48d776dc06af",
					"type": "Patient"
				},
				"encounter": {
					"reference": "Encounter/42eede74-6328-44e4-8dcf-fd9f4057b464",
					"type": "Encounter"
				},
				"performedDateTime": "2022-01-06T18:36:46.000+00:00",
				"recorder": {
					"reference": "Practitioner/8085737b-28ec-4b23-8604-83fd20076933",
					"type": "Practitioner"
				},
				"asserter": {
					"reference": "Practitioner/8085737b-28ec-4b23-8604-83fd20076933",
					"type": "Practitioner"
				},
				"performer": [
					{
						"actor": {
							"reference": "Practitioner/8085737b-28ec-4b23-8604-83fd20076933",
							"type": "Practitioner"
						}
					}
				],
				"reasonReference": [
					{
						"reference": "Condition/c7ae0606-d0df-4ffd-a535-91697eabf9d5",
						"type": "Condition"
					}
				]
			}
		},
		{
			"fullUrl": "http://example.org/fhir/Procedure/d35f604e-1109-42e4-9d6f-81f9babec91b",
			"resource": {
				"resourceType": "Procedure",
				"id": "d35f604e-1109-42e4-9d6f-81f9babec91b",
				"meta": {
					"profile": [
						"http://hl7.org/fhir/us/core/StructureDefinition/us-core-procedure"
					]
				},
				"text": {
					"status": "generated",
					"div": "<div xmlns=\"http://www.w3.org/1999/xhtml\">This is a simple narrative with only plain text</div>"
				},
				"identifier": [
					{
						"value": "d96030446269cb1e0a862d"
					}
				],
				"status": "completed",
				"code": {
					"coding": [
						{
							"system": "http://www.ama-assn.org/go/cpt",
							"code": "99213",
							"display": "Office or other outpatient visit for the evaluation and management of an established patient, which requires a medically appropriate history and/or examination and low level of medical decision making. When using time for code selection, 20-29 minutes of total time is spent on the date of the encounter."
						}
					]
				},
				"subject": {
					"reference": "Patient/f288c654-6885-4f48-999c-48d776dc06af",
					"type": "Patient"
				},
				"encounter": {
					"reference": "Encounter/42eede74-6328-44e4-8dcf-fd9f4057b464",
					"type": "Encounter"
				},
				"performedDateTime": "2022-01-06T18:36:46.000+00:00",
				"recorder": {
					"reference": "Practitioner/8085737b-28ec-4b23-8604-83fd20076933",
					"type": "Practitioner"
				},
				"asserter": {
					"reference": "Practitioner/8085737b-28ec-4b23-8604-83fd20076933",
					"type": "Practitioner"
				},
				"performer": [
					{
						"actor": {
							"reference": "Practitioner/8085737b-28ec-4b23-8604-83fd20076933",
							"type": "Practitioner"
						}
					}
				],
				"reasonReference": [
					{
						"reference": "Condition/c7ae0606-d0df-4ffd-a535-91697eabf9d5",
						"type": "Condition"
					}
				]
			}
		},
		{
			"fullUrl": "http://example.org/fhir/Procedure/09a9dcd9-1e9d-4501-bbb3-b9cd0e7882df",
			"resource": {
				"resourceType": "Procedure",
				"id": "09a9dcd9-1e9d-4501-bbb3-b9cd0e7882df",
				"meta": {
					"profile": [
						"http://hl7.org/fhir/us/core/StructureDefinition/us-core-procedure"
					]
				},
				"text": {
					"status": "generated",
					"div": "<div xmlns=\"http://www.w3.org/1999/xhtml\">This is a simple narrative with only plain text</div>"
				},
				"identifier": [
					{
						"value": "d96030446269cb1e0a862d"
					}
				],
				"status": "completed",
				"code": {
					"coding": [
						{
							"system": "http://www.ama-assn.org/go/cpt",
							"code": "90698",
							"display": "Diphtheria, tetanus toxoids, acellular pertussis vaccine, Haemophilus influenzae type b, and inactivated poliovirus vaccine, (DTaP-IPV/Hib), for intramuscular use"
						}
					]
				},
				"subject": {
					"reference": "Patient/f288c654-6885-4f48-999c-48d776dc06af",
					"type": "Patient"
				},
				"encounter": {
					"reference": "Encounter/42eede74-6328-44e4-8dcf-fd9f4057b464",
					"type": "Encounter"
				},
				"performedDateTime": "2022-01-06T18:36:46.000+00:00",
				"recorder": {
					"reference": "Practitioner/8085737b-28ec-4b23-8604-83fd20076933",
					"type": "Practitioner"
				},
				"asserter": {
					"reference": "Practitioner/8085737b-28ec-4b23-8604-83fd20076933",
					"type": "Practitioner"
				},
				"performer": [
					{
						"actor": {
							"reference": "Practitioner/8085737b-28ec-4b23-8604-83fd20076933",
							"type": "Practitioner"
						}
					}
				],
				"reasonReference": [
					{
						"reference": "Condition/c7ae0606-d0df-4ffd-a535-91697eabf9d5",
						"type": "Condition"
					}
				]
			}
		},
		{
			"fullUrl": "http://example.org/fhir/Procedure/81cffcda-3a34-4760-abf4-d5d6cb6030a7",
			"resource": {
				"resourceType": "Procedure",
				"id": "81cffcda-3a34-4760-abf4-d5d6cb6030a7",
				"meta": {
					"profile": [
						"http://hl7.org/fhir/us/core/StructureDefinition/us-core-procedure"
					]
				},
				"text": {
					"status": "generated",
					"div": "<div xmlns=\"http://www.w3.org/1999/xhtml\">This is a simple narrative with only plain text</div>"
				},
				"identifier": [
					{
						"value": "d96030446269cb1e0a862d"
					}
				],
				"status": "completed",
				"code": {
					"coding": [
						{
							"system": "http://www.ama-assn.org/go/cpt",
							"code": "99222",
							"display": "Initial hospital inpatient or observation care, per day, for the evaluation and management of a patient, which requires a medically appropriate history and/or examination and moderate level of medical decision making. When using total time on the date of the encounter for code selection, 55 minutes must be met or exceeded."
						}
					]
				},
				"subject": {
					"reference": "Patient/f288c654-6885-4f48-999c-48d776dc06af",
					"type": "Patient"
				},
				"encounter": {
					"reference": "Encounter/42eede74-6328-44e4-8dcf-fd9f4057b464",
					"type": "Encounter"
				},
				"performedDateTime": "2022-01-06T18:36:46.000+00:00",
				"recorder": {
					"reference": "Practitioner/8085737b-28ec-4b23-8604-83fd20076933",
					"type": "Practitioner"
				},
				"asserter": {
					"reference": "Practitioner/8085737b-28ec-4b23-8604-83fd20076933",
					"type": "Practitioner"
				},
				"performer": [
					{
						"actor": {
							"reference": "Practitioner/8085737b-28ec-4b23-8604-83fd20076933",
							"type": "Practitioner"
						}
					}
				],
				"reasonReference": [
					{
						"reference": "Condition/c7ae0606-d0df-4ffd-a535-91697eabf9d5",
						"type": "Condition"
					}
				]
			}
		},
		{
			"fullUrl": "http://example.org/fhir/Procedure/ba870de3-1d40-42ae-a3b7-717e59c79871",
			"resource": {
				"resourceType": "Procedure",
				"id": "ba870de3-1d40-42ae-a3b7-717e59c79871",
				"meta": {
					"profile": [
						"http://hl7.org/fhir/us/core/StructureDefinition/us-core-procedure"
					]
				},
				"text": {
					"status": "generated",
					"div": "<div xmlns=\"http://www.w3.org/1999/xhtml\">This is a simple narrative with only plain text</div>"
				},
				"identifier": [
					{
						"value": "d96030446269cb1e0a862d"
					}
				],
				"status": "completed",
				"code": {
					"coding": [
						{
							"system": "https://www.cms.gov/Medicare/Coding/HCPCSReleaseCodeSets",
							"code": "J1100",
							"display": "Dexamethasone sodium phos"
						}
					]
				},
				"subject": {
					"reference": "Patient/f288c654-6885-4f48-999c-48d776dc06af",
					"type": "Patient"
				},
				"encounter": {
					"reference": "Encounter/42eede74-6328-44e4-8dcf-fd9f4057b464",
					"type": "Encounter"
				},
				"performedDateTime": "2022-01-06T18:36:46.000+00:00",
				"recorder": {
					"reference": "Practitioner/8085737b-28ec-4b23-8604-83fd20076933",
					"type": "Practitioner"
				},
				"asserter": {
					"reference": "Practitioner/8085737b-28ec-4b23-8604-83fd20076933",
					"type": "Practitioner"
				},
				"performer": [
					{
						"actor": {
							"reference": "Practitioner/8085737b-28ec-4b23-8604-83fd20076933",
							"type": "Practitioner"
						}
					}
				],
				"reasonReference": [
					{
						"reference": "Condition/c7ae0606-d0df-4ffd-a535-91697eabf9d5",
						"type": "Condition"
					}
				]
			}
		},
		{
			"fullUrl": "http://example.org/fhir/Procedure/9b7d7bc9-986a-42e5-a0ef-287a7c31d9ff",
			"resource": {
				"resourceType": "Procedure",
				"id": "9b7d7bc9-986a-42e5-a0ef-287a7c31d9ff",
				"meta": {
					"profile": [
						"http://hl7.org/fhir/us/core/StructureDefinition/us-core-procedure"
					]
				},
				"text": {
					"status": "generated",
					"div": "<div xmlns=\"http://www.w3.org/1999/xhtml\">This is a simple narrative with only plain text</div>"
				},
				"identifier": [
					{
						"value": "d96030446269cb1e0a862d"
					}
				],
				"status": "completed",
				"code": {
					"coding": [
						{
							"system": "http://www.ama-assn.org/go/cpt",
							"code": "70360",
							"display": "X-ray exam of neck"
						}
					]
				},
				"subject": {
					"reference": "Patient/f288c654-6885-4f48-999c-48d776dc06af",
					"type": "Patient"
				},
				"encounter": {
					"reference": "Encounter/42eede74-6328-44e4-8dcf-fd9f4057b464",
					"type": "Encounter"
				},
				"performedDateTime": "2022-01-06T18:36:46.000+00:00",
				"recorder": {
					"reference": "Practitioner/8085737b-28ec-4b23-8604-83fd20076933",
					"type": "Practitioner"
				},
				"asserter": {
					"reference": "Practitioner/8085737b-28ec-4b23-8604-83fd20076933",
					"type": "Practitioner"
				},
				"performer": [
					{
						"actor": {
							"reference": "Practitioner/8085737b-28ec-4b23-8604-83fd20076933",
							"type": "Practitioner"
						}
					}
				],
				"reasonReference": [
					{
						"reference": "Condition/c7ae0606-d0df-4ffd-a535-91697eabf9d5",
						"type": "Condition"
					}
				]
			}
		},
		{
			"fullUrl": "http://example.org/fhir/Procedure/77b76c7c-9d4d-468d-ab01-0cbcaa4ecd04",
			"resource": {
				"resourceType": "Procedure",
				"id": "77b76c7c-9d4d-468d-ab01-0cbcaa4ecd04",
				"meta": {
					"profile": [
						"http://hl7.org/fhir/us/core/StructureDefinition/us-core-procedure"
					]
				},
				"text": {
					"status": "generated",
					"div": "<div xmlns=\"http://www.w3.org/1999/xhtml\">This is a simple narrative with only plain text</div>"
				},
				"identifier": [
					{
						"value": "d96030446269cb1e0a862d"
					}
				],
				"status": "completed",
				"code": {
					"coding": [
						{
							"system": "http://www.ama-assn.org/go/cpt",
							"code": "99284",
							"display": "Emergency department visit for the evaluation and management of a patient, which requires a medically appropriate history and/or examination and moderate level of medical decision making"
						}
					]
				},
				"subject": {
					"reference": "Patient/f288c654-6885-4f48-999c-48d776dc06af",
					"type": "Patient"
				},
				"encounter": {
					"reference": "Encounter/42eede74-6328-44e4-8dcf-fd9f4057b464",
					"type": "Encounter"
				},
				"performedDateTime": "2022-01-06T18:36:46.000+00:00",
				"recorder": {
					"reference": "Practitioner/8085737b-28ec-4b23-8604-83fd20076933",
					"type": "Practitioner"
				},
				"asserter": {
					"reference": "Practitioner/8085737b-28ec-4b23-8604-83fd20076933",
					"type": "Practitioner"
				},
				"performer": [
					{
						"actor": {
							"reference": "Practitioner/8085737b-28ec-4b23-8604-83fd20076933",
							"type": "Practitioner"
						}
					}
				],
				"reasonReference": [
					{
						"reference": "Condition/c7ae0606-d0df-4ffd-a535-91697eabf9d5",
						"type": "Condition"
					}
				]
			}
		},
		{
			"fullUrl": "http://example.org/fhir/Procedure/814d1cad-0c10-44b0-b660-e5dbd032db09",
			"resource": {
				"resourceType": "Procedure",
				"id": "814d1cad-0c10-44b0-b660-e5dbd032db09",
				"meta": {
					"profile": [
						"http://hl7.org/fhir/us/core/StructureDefinition/us-core-procedure"
					]
				},
				"text": {
					"status": "generated",
					"div": "<div xmlns=\"http://www.w3.org/1999/xhtml\">This is a simple narrative with only plain text</div>"
				},
				"identifier": [
					{
						"value": "d96030446269cb1e0a862d"
					}
				],
				"status": "completed",
				"code": {
					"coding": [
						{
							"system": "http://www.ama-assn.org/go/cpt",
							"code": "99239",
							"display": "Hospital inpatient or observation discharge day management; more than 30 minutes on the date of the encounter"
						}
					]
				},
				"subject": {
					"reference": "Patient/f288c654-6885-4f48-999c-48d776dc06af",
					"type": "Patient"
				},
				"encounter": {
					"reference": "Encounter/42eede74-6328-44e4-8dcf-fd9f4057b464",
					"type": "Encounter"
				},
				"performedDateTime": "2022-01-06T18:36:46.000+00:00",
				"recorder": {
					"reference": "Practitioner/8085737b-28ec-4b23-8604-83fd20076933",
					"type": "Practitioner"
				},
				"asserter": {
					"reference": "Practitioner/8085737b-28ec-4b23-8604-83fd20076933",
					"type": "Practitioner"
				},
				"performer": [
					{
						"actor": {
							"reference": "Practitioner/8085737b-28ec-4b23-8604-83fd20076933",
							"type": "Practitioner"
						}
					}
				],
				"reasonReference": [
					{
						"reference": "Condition/c7ae0606-d0df-4ffd-a535-91697eabf9d5",
						"type": "Condition"
					}
				]
			}
		},
		{
			"fullUrl": "http://example.org/fhir/Procedure/ea886a68-366c-431c-89b7-0e3f3b592a51",
			"resource": {
				"resourceType": "Procedure",
				"id": "ea886a68-366c-431c-89b7-0e3f3b592a51",
				"meta": {
					"profile": [
						"http://hl7.org/fhir/us/core/StructureDefinition/us-core-procedure"
					]
				},
				"text": {
					"status": "generated",
					"div": "<div xmlns=\"http://www.w3.org/1999/xhtml\">This is a simple narrative with only plain text</div>"
				},
				"identifier": [
					{
						"value": "d96030446269cb1e0a862d"
					}
				],
				"status": "completed",
				"code": {
					"coding": [
						{
							"system": "http://www.ama-assn.org/go/cpt",
							"code": "99203",
							"display": "Office or other outpatient visit for the evaluation and management of a new patient, which requires a medically appropriate history and/or examination and low level of medical decision making. When using time for code selection, 30-44 minutes of total time is spent on the date of the encounter."
						}
					]
				},
				"subject": {
					"reference": "Patient/f288c654-6885-4f48-999c-48d776dc06af",
					"type": "Patient"
				},
				"encounter": {
					"reference": "Encounter/42eede74-6328-44e4-8dcf-fd9f4057b464",
					"type": "Encounter"
				},
				"performedDateTime": "2022-01-06T18:36:46.000+00:00",
				"recorder": {
					"reference": "Practitioner/8085737b-28ec-4b23-8604-83fd20076933",
					"type": "Practitioner"
				},
				"asserter": {
					"reference": "Practitioner/8085737b-28ec-4b23-8604-83fd20076933",
					"type": "Practitioner"
				},
				"performer": [
					{
						"actor": {
							"reference": "Practitioner/8085737b-28ec-4b23-8604-83fd20076933",
							"type": "Practitioner"
						}
					}
				],
				"reasonReference": [
					{
						"reference": "Condition/c7ae0606-d0df-4ffd-a535-91697eabf9d5",
						"type": "Condition"
					}
				]
			}
		},
		{
			"fullUrl": "http://example.org/fhir/Procedure/3097604e-a816-4d1b-8bc0-68e5fb11f6a7",
			"resource": {
				"resourceType": "Procedure",
				"id": "3097604e-a816-4d1b-8bc0-68e5fb11f6a7",
				"meta": {
					"profile": [
						"http://hl7.org/fhir/us/core/StructureDefinition/us-core-procedure"
					]
				},
				"text": {
					"status": "generated",
					"div": "<div xmlns=\"http://www.w3.org/1999/xhtml\">This is a simple narrative with only plain text</div>"
				},
				"identifier": [
					{
						"value": "d96030446269cb1e0a862d"
					}
				],
				"status": "completed",
				"code": {
					"coding": [
						{
							"system": "http://www.ama-assn.org/go/cpt",
							"code": "99214",
							"display": "Office or other outpatient visit for the evaluation and management of an established patient, which requires a medically appropriate history and/or examination and moderate level of medical decision making. When using time for code selection, 30-39 minutes of total time is spent on the date of the encounter."
						}
					]
				},
				"subject": {
					"reference": "Patient/f288c654-6885-4f48-999c-48d776dc06af",
					"type": "Patient"
				},
				"encounter": {
					"reference": "Encounter/42eede74-6328-44e4-8dcf-fd9f4057b464",
					"type": "Encounter"
				},
				"performedDateTime": "2022-01-06T18:36:46.000+00:00",
				"recorder": {
					"reference": "Practitioner/8085737b-28ec-4b23-8604-83fd20076933",
					"type": "Practitioner"
				},
				"asserter": {
					"reference": "Practitioner/8085737b-28ec-4b23-8604-83fd20076933",
					"type": "Practitioner"
				},
				"performer": [
					{
						"actor": {
							"reference": "Practitioner/8085737b-28ec-4b23-8604-83fd20076933",
							"type": "Practitioner"
						}
					}
				],
				"reasonReference": [
					{
						"reference": "Condition/c7ae0606-d0df-4ffd-a535-91697eabf9d5",
						"type": "Condition"
					}
				]
			}
		},
		{
			"fullUrl": "http://example.org/fhir/Procedure/032f653b-4e14-46d7-8bfa-9a42c1961846",
			"resource": {
				"resourceType": "Procedure",
				"id": "032f653b-4e14-46d7-8bfa-9a42c1961846",
				"meta": {
					"profile": [
						"http://hl7.org/fhir/us/core/StructureDefinition/us-core-procedure"
					]
				},
				"text": {
					"status": "generated",
					"div": "<div xmlns=\"http://www.w3.org/1999/xhtml\">This is a simple narrative with only plain text</div>"
				},
				"identifier": [
					{
						"value": "d96030446269cb1e0a862d"
					}
				],
				"status": "completed",
				"code": {
					"coding": [
						{
							"system": "http://snomed.info/sct",
							"code": "172960003",
							"display": "Incision of retropharyngeal abscess"
						}
					]
				},
				"subject": {
					"reference": "Patient/f288c654-6885-4f48-999c-48d776dc06af",
					"type": "Patient"
				},
				"encounter": {
					"reference": "Encounter/42eede74-6328-44e4-8dcf-fd9f4057b464",
					"type": "Encounter"
				},
				"performedPeriod": {
					"start": "2020-03-02",
					"end": "2020-03-03"
				},
				"recorder": {
					"reference": "Practitioner/8085737b-28ec-4b23-8604-83fd20076933",
					"type": "Practitioner"
				},
				"asserter": {
					"reference": "Practitioner/8085737b-28ec-4b23-8604-83fd20076933",
					"type": "Practitioner"
				},
				"performer": [
					{
						"actor": {
							"reference": "Practitioner/8085737b-28ec-4b23-8604-83fd20076933",
							"type": "Practitioner"
						}
					}
				],
				"reasonReference": [
					{
						"reference": "Condition/c7ae0606-d0df-4ffd-a535-91697eabf9d5",
						"type": "Condition"
					}
				]
			}
		},
		{
			"fullUrl": "http://example.org/fhir/Procedure/1cee4a99-ef5d-406e-80de-3a9a1b47c445",
			"resource": {
				"resourceType": "Procedure",
				"id": "1cee4a99-ef5d-406e-80de-3a9a1b47c445",
				"meta": {
					"profile": [
						"http://hl7.org/fhir/us/core/StructureDefinition/us-core-procedure"
					]
				},
				"text": {
					"status": "generated",
					"div": "<div xmlns=\"http://www.w3.org/1999/xhtml\">This is a simple narrative with only plain text</div>"
				},
				"identifier": [
					{
						"value": "d96030446269cb1e0a862d"
					}
				],
				"status": "completed",
				"code": {
					"coding": [
						{
							"system": "http://snomed.info/sct",
							"code": "172960003",
							"display": "Incision of retropharyngeal abscess"
						}
					]
				},
				"subject": {
					"reference": "Patient/f288c654-6885-4f48-999c-48d776dc06af",
					"type": "Patient"
				},
				"encounter": {
					"reference": "Encounter/42eede74-6328-44e4-8dcf-fd9f4057b464",
					"type": "Encounter"
				},
				"performedPeriod": {
					"start": "2020-03-02",
					"end": "2020-03-03"
				},
				"recorder": {
					"reference": "Practitioner/8085737b-28ec-4b23-8604-83fd20076933",
					"type": "Practitioner"
				},
				"asserter": {
					"reference": "Practitioner/8085737b-28ec-4b23-8604-83fd20076933",
					"type": "Practitioner"
				},
				"performer": [
					{
						"actor": {
							"reference": "Practitioner/8085737b-28ec-4b23-8604-83fd20076933",
							"type": "Practitioner"
						}
					}
				],
				"reasonReference": [
					{
						"reference": "Condition/c7ae0606-d0df-4ffd-a535-91697eabf9d5",
						"type": "Condition"
					}
				]
			}
		},
		{
			"fullUrl": "http://example.org/fhir/Observation/41ad774f-024f-4c16-b870-fb6702f389f9",
			"resource": {
				"resourceType": "Observation",
				"id": "41ad774f-024f-4c16-b870-fb6702f389f9",
				"meta": {
					"profile": [
						"http://hl7.org/fhir/us/core/StructureDefinition/us-core-observation-screening-assessment"
					]
				},
				"text": {
					"status": "generated",
					"div": "<div xmlns=\"http://www.w3.org/1999/xhtml\">This is a simple narrative with only plain text</div>"
				},
				"status": "final",
				"category": [
					{
						"coding": [
							{
								"system": "http://hl7.org/fhir/us/core/CodeSystem/us-core-category",
								"code": "functional-status",
								"display": "Functional Status"
							}
						]
					},
					{
						"coding": [
							{
								"system": "http://terminology.hl7.org/CodeSystem/observation-category",
								"code": "survey",
								"display": "Survey"
							}
						]
					}
				],
				"code": {
					"coding": [
						{
							"system": "http://loinc.org",
							"code": "54109-4",
							"display": "Newborn hearing screen of Ear - right"
						}
					],
					"text": "Newborn hearing screen of Ear - right"
				},
				"subject": {
					"reference": "Patient/f288c654-6885-4f48-999c-48d776dc06af"
				},
				"effectiveDateTime": "2024-07-12T00:00:00Z",
				"performer": [
					{
						"reference": "Practitioner/8085737b-28ec-4b23-8604-83fd20076933",
						"type": "Practitioner"
					}
				],
				"valueCodeableConcept": {
					"coding": [
						{
							"system": "http://snomed.info/sct",
							"code": "262008008",
							"display": "Not Performed"
						}
					],
					"text": "Not Performed"
				}
			}
		},
		{
			"fullUrl": "http://example.org/fhir/Observation/5f7ce707-9355-466a-846a-5613a3d22a89",
			"resource": {
				"resourceType": "Observation",
				"id": "5f7ce707-9355-466a-846a-5613a3d22a89",
				"meta": {
					"profile": [
						"http://hl7.org/fhir/us/core/StructureDefinition/us-core-vital-signs"
					]
				},
				"text": {
					"status": "generated",
					"div": "<div xmlns=\"http://www.w3.org/1999/xhtml\">This is a simple narrative with only plain text</div>"
				},
				"status": "final",
				"category": [
					{
						"coding": [
							{
								"system": "http://terminology.hl7.org/CodeSystem/observation-category",
								"code": "vital-signs",
								"display": "Vital Signs"
							}
						],
						"text": "Vital Signs"
					}
				],
				"code": {
					"coding": [
						{
							"system": "http://loinc.org",
							"code": "8336-0",
							"display": "Body weight [Percentile] Per age"
						}
					],
					"text": "Body weight [Percentile] Per age"
				},
				"subject": {
					"reference": "Patient/f288c654-6885-4f48-999c-48d776dc06af"
				},
				"effectiveDateTime": "2024-07-12T00:00:00Z",
				"performer": [
					{
						"reference": "Practitioner/8085737b-28ec-4b23-8604-83fd20076933",
						"display": "Practitioner"
					}
				],
				"valueQuantity": {
					"value": 80.05,
					"unit": "percent",
					"system": "http://unitsofmeasure.org",
					"code": "%"
				}
			}
		},
		{
			"fullUrl": "http://example.org/fhir/Observation/53ba89ca-25ea-4d25-aad7-532b3dc34a0f",
			"resource": {
				"resourceType": "Observation",
				"id": "53ba89ca-25ea-4d25-aad7-532b3dc34a0f",
				"meta": {
					"profile": [
						"http://hl7.org/fhir/us/core/StructureDefinition/us-core-observation-screening-assessment"
					]
				},
				"text": {
					"status": "generated",
					"div": "<div xmlns=\"http://www.w3.org/1999/xhtml\">This is a simple narrative with only plain text</div>"
				},
				"status": "final",
				"category": [
					{
						"coding": [
							{
								"system": "http://hl7.org/fhir/us/core/CodeSystem/us-core-category",
								"code": "functional-status",
								"display": "Functional Status"
							}
						]
					},
					{
						"coding": [
							{
								"system": "http://terminology.hl7.org/CodeSystem/observation-category",
								"code": "survey",
								"display": "Survey"
							}
						]
					}
				],
				"code": {
					"coding": [
						{
							"system": "http://loinc.org",
							"code": "54108-6",
							"display": "Newborn hearing screen of Ear - left"
						}
					],
					"text": "Newborn hearing screen of Ear - left"
				},
				"subject": {
					"reference": "Patient/f288c654-6885-4f48-999c-48d776dc06af"
				},
				"effectiveDateTime": "2024-07-12T00:00:00Z",
				"performer": [
					{
						"reference": "Practitioner/8085737b-28ec-4b23-8604-83fd20076933",
						"display": "Practitioner"
					}
				],
				"valueCodeableConcept": {
					"coding": [
						{
							"system": "http://snomed.info/sct",
							"code": "262008008",
							"display": "Not Performed"
						}
					],
					"text": "Not Performed"
				}
			}
		},
		{
			"fullUrl": "http://example.org/fhir/Observation/303040a8-65d4-41d2-84c3-f72d467ecef3",
			"resource": {
				"resourceType": "Observation",
				"id": "303040a8-65d4-41d2-84c3-f72d467ecef3",
				"meta": {
					"profile": [
						"http://hl7.org/fhir/us/core/StructureDefinition/us-core-pulse-oximetry"
					]
				},
				"text": {
					"status": "generated",
					"div": "<div xmlns=\"http://www.w3.org/1999/xhtml\">This is a simple narrative with only plain text</div>"
				},
				"status": "final",
				"category": [
					{
						"coding": [
							{
								"system": "http://terminology.hl7.org/CodeSystem/observation-category",
								"code": "vital-signs",
								"display": "Vital Signs"
							}
						],
						"text": "Vital Signs"
					}
				],
				"code": {
					"coding": [
						{
							"system": "http://loinc.org",
							"code": "2708-6",
							"display": "Oxygen saturation in Arterial blood"
						},
						{
							"system": "http://loinc.org",
							"code": "59408-5",
							"display": "Oxygen saturation in Arterial blood by Pulse oximetry"
						}
					],
					"text": "oxygen_saturation"
				},
				"subject": {
					"reference": "Patient/f288c654-6885-4f48-999c-48d776dc06af"
				},
				"effectiveDateTime": "2024-07-12T00:00:00Z",
				"performer": [
					{
						"reference": "Practitioner/8085737b-28ec-4b23-8604-83fd20076933",
						"display": "Practitioner"
					}
				],
				"valueQuantity": {
					"value": 99,
					"unit": "percent",
					"system": "http://unitsofmeasure.org",
					"code": "%"
				}
			}
		},
		{
			"fullUrl": "http://example.org/fhir/Observation/033cccf8-643c-409e-89cb-346876d635bf",
			"resource": {
				"resourceType": "Observation",
				"id": "033cccf8-643c-409e-89cb-346876d635bf",
				"meta": {
					"profile": [
						"http://hl7.org/fhir/us/core/StructureDefinition/us-core-simple-observation"
					]
				},
				"text": {
					"status": "generated",
					"div": "<div xmlns=\"http://www.w3.org/1999/xhtml\">This is a simple narrative with only plain text</div>"
				},
				"status": "final",
				"category": [
					{
						"coding": [
							{
								"system": "http://terminology.hl7.org/CodeSystem/observation-category",
								"code": "exam",
								"display": "Exam"
							}
						]
					}
				],
				"code": {
					"coding": [
						{
							"system": "http://loinc.org",
							"code": "57713-0",
							"display": "Infant factors that affect newborn screening interpretation"
						}
					],
					"text": "Infant factors that affect newborn screening interpretation"
				},
				"subject": {
					"reference": "Patient/f288c654-6885-4f48-999c-48d776dc06af"
				},
				"effectiveDateTime": "2024-07-12T00:00:00Z",
				"performer": [
					{
						"reference": "Practitioner/8085737b-28ec-4b23-8604-83fd20076933",
						"display": "Practitioner"
					}
				],
				"valueCodeableConcept": {
					"coding": [
						{
							"system": "http://loinc.org",
							"code": "LA12419-0",
							"display": "Infant in NICU at time of specimen collection"
						}
					],
					"text": "Infant in NICU at time of specimen collection"
				}
			}
		},
		{
			"fullUrl": "http://example.org/fhir/Observation/dfb90ab8-4330-490a-b4d2-63b6127da0e6",
			"resource": {
				"resourceType": "Observation",
				"id": "dfb90ab8-4330-490a-b4d2-63b6127da0e6",
				"meta": {
					"profile": [
						"http://hl7.org/fhir/us/core/StructureDefinition/us-core-observation-screening-assessment"
					]
				},
				"text": {
					"status": "generated",
					"div": "<div xmlns=\"http://www.w3.org/1999/xhtml\">This is a simple narrative with only plain text</div>"
				},
				"status": "final",
				"category": [
					{
						"coding": [
							{
								"system": "http://terminology.hl7.org/CodeSystem/observation-category",
								"code": "survey",
								"display": "Survey"
							}
						]
					},
					{
						"coding": [
							{
								"system": "http://hl7.org/fhir/us/core/CodeSystem/us-core-category",
								"code": "functional-status",
								"display": "Functional Status"
							}
						]
					}
				],
				"code": {
					"coding": [
						{
							"system": "http://loinc.org",
							"code": "73742-9",
							"display": "Newborn hearing screen reason not performed of Ear - right"
						}
					],
					"text": "Newborn hearing screen reason not performed of Ear - right"
				},
				"subject": {
					"reference": "Patient/f288c654-6885-4f48-999c-48d776dc06af"
				},
				"effectiveDateTime": "2024-07-12T00:00:00Z",
				"performer": [
					{
						"reference": "Practitioner/8085737b-28ec-4b23-8604-83fd20076933",
						"display": "Practitioner"
					}
				],
				"valueCodeableConcept": {
					"coding": [
						{
							"system": "http://snomed.info/sct",
							"code": "103709008",
							"display": "Failed attempted procedure"
						}
					],
					"text": "Failed attempted procedure"
				}
			}
		},
		{
			"fullUrl": "http://example.org/fhir/Observation/2f68ae0a-519b-4f8e-9792-4aed2e22dc73",
			"resource": {
				"resourceType": "Observation",
				"id": "2f68ae0a-519b-4f8e-9792-4aed2e22dc73",
				"meta": {
					"profile": [
						"http://hl7.org/fhir/us/core/StructureDefinition/us-core-simple-observation"
					]
				},
				"text": {
					"status": "generated",
					"div": "<div xmlns=\"http://www.w3.org/1999/xhtml\">This is a simple narrative with only plain text</div>"
				},
				"status": "final",
				"category": [
					{
						"coding": [
							{
								"system": "http://hl7.org/fhir/us/core/CodeSystem/us-core-category",
								"code": "functional-status",
								"display": "Functional Status"
							}
						]
					},
					{
						"coding": [
							{
								"system": "http://terminology.hl7.org/CodeSystem/observation-category",
								"code": "survey",
								"display": "Survey"
							}
						]
					}
				],
				"code": {
					"coding": [
						{
							"system": "http://loinc.org",
							"code": "73700-7",
							"display": "CCHD Newborn Screening Interpretation"
						}
					],
					"text": "CCHD Newborn Screening Interpretation"
				},
				"subject": {
					"reference": "Patient/f288c654-6885-4f48-999c-48d776dc06af"
				},
				"effectiveDateTime": "2024-07-12T00:00:00Z",
				"performer": [
					{
						"reference": "Practitioner/8085737b-28ec-4b23-8604-83fd20076933",
						"display": "Practitioner"
					}
				],
				"valueCodeableConcept": {
					"coding": [
						{
							"system": "http://loinc.org",
							"code": "LA18593-6",
							"display": "Out of Range"
						}
					],
					"text": "Out of Range"
				}
			}
		},
		{
			"fullUrl": "http://example.org/fhir/Observation/d4bc8c7f-7b9a-4f77-970d-592facce24ad",
			"resource": {
				"resourceType": "Observation",
				"id": "d4bc8c7f-7b9a-4f77-970d-592facce24ad",
				"meta": {
					"profile": [
						"http://hl7.org/fhir/us/core/StructureDefinition/us-core-observation-screening-assessment"
					]
				},
				"text": {
					"status": "generated",
					"div": "<div xmlns=\"http://www.w3.org/1999/xhtml\">This is a simple narrative with only plain text</div>"
				},
				"status": "final",
				"category": [
					{
						"coding": [
							{
								"system": "http://hl7.org/fhir/us/core/CodeSystem/us-core-category",
								"code": "functional-status",
								"display": "Functional Status"
							}
						]
					},
					{
						"coding": [
							{
								"system": "http://terminology.hl7.org/CodeSystem/observation-category",
								"code": "survey",
								"display": "Survey"
							}
						]
					}
				],
				"code": {
					"coding": [
						{
							"system": "http://loinc.org",
							"code": "73739-5",
							"display": "Newborn hearing screen reason not performed of Ear - left"
						}
					],
					"text": "Newborn hearing screen reason not performed of Ear - left"
				},
				"subject": {
					"reference": "Patient/f288c654-6885-4f48-999c-48d776dc06af"
				},
				"effectiveDateTime": "2024-07-12T00:00:00Z",
				"performer": [
					{
						"reference": "Practitioner/8085737b-28ec-4b23-8604-83fd20076933",
						"display": "Practitioner"
					}
				],
				"valueCodeableConcept": {
					"coding": [
						{
							"system": "http://snomed.info/sct",
							"code": "103709008",
							"display": "Failed attempted procedure"
						}
					],
					"text": "Failed attempted procedure"
				}
			}
		},
		{
			"fullUrl": "http://example.org/fhir/Observation/f1bb00a3-cdfe-4d2f-9dbb-fd11896f7567",
			"resource": {
				"resourceType": "Observation",
				"id": "f1bb00a3-cdfe-4d2f-9dbb-fd11896f7567",
				"meta": {
					"profile": [
						"http://hl7.org/fhir/us/core/StructureDefinition/us-core-vital-signs"
					]
				},
				"text": {
					"status": "generated",
					"div": "<div xmlns=\"http://www.w3.org/1999/xhtml\">This is a simple narrative with only plain text</div>"
				},
				"status": "final",
				"category": [
					{
						"coding": [
							{
								"system": "http://terminology.hl7.org/CodeSystem/observation-category",
								"code": "laboratory",
								"display": "Laboratory"
							}
						],
						"text": "Laboratory"
					},
					{
						"coding": [
							{
								"system": "http://terminology.hl7.org/CodeSystem/observation-category",
								"code": "therapy",
								"display": "Therapy"
							}
						],
						"text": "Therapy"
					},
					{
						"coding": [
							{
								"system": "http://terminology.hl7.org/CodeSystem/observation-category",
								"code": "vital-signs",
								"display": "Vital Signs"
							}
						],
						"text": "Vital Signs"
					}
				],
				"code": {
					"coding": [
						{
							"system": "https://fhir.cerner.com/e8a84236-c258-4952-98b7-a6ff8a9c587a/codeSet/72",
							"code": "20564-1",
							"display": "Oxygen saturation in Arterial blood",
							"userSelected": true
						},
						{
							"system": "http://loinc.org",
							"code": "2708-6"
						},
						{
							"system": "http://loinc.org",
							"code": "59408-5"
						}
					],
					"text": "Oxygen saturation in Arterial blood"
				},
				"subject": {
					"reference": "Patient/f288c654-6885-4f48-999c-48d776dc06af"
				},
				"effectiveDateTime": "2024-07-13T15:21:00.000Z",
				"issued": "2024-07-13T15:30:25.000Z",
				"performer": [
					{
						"reference": "Practitioner/8085737b-28ec-4b23-8604-83fd20076933",
						"type": "Practitioner"
					}
				],
				"valueQuantity": {
					"value": 99,
					"unit": "%",
					"system": "http://unitsofmeasure.org",
					"code": "%"
				}
			}
		},
		{
			"fullUrl": "http://example.org/fhir/Observation/11f659fd-0b0d-4d6f-a9e7-634226246ee4",
			"resource": {
				"resourceType": "Observation",
				"id": "11f659fd-0b0d-4d6f-a9e7-634226246ee4",
				"meta": {
					"profile": [
						"http://hl7.org/fhir/us/core/StructureDefinition/us-core-vital-sign"
					]
				},
				"text": {
					"status": "generated",
					"div": "<div xmlns=\"http://www.w3.org/1999/xhtml\">This is a simple narrative with only plain text</div>"
				},
				"identifier": [
					{
						"system": "https://fhir.cerner.com/ceuuid",
						"value": "CE87caf4b7-9397-4667-9897-702218017c9e-197323271-2023090115225900"
					}
				],
				"status": "final",
				"category": [
					{
						"coding": [
							{
								"system": "http://terminology.hl7.org/CodeSystem/observation-category",
								"code": "vital-signs",
								"display": "Vital Signs",
								"userSelected": false
							}
						],
						"text": "Vital Signs"
					}
				],
				"code": {
					"coding": [
						{
							"system": "https://fhir.cerner.com/e8a84236-c258-4952-98b7-a6ff8a9c587a/codeSet/72",
							"code": "8336-0",
							"display": "Weight Percentile",
							"userSelected": true
						},
						{
							"system": "http://loinc.org",
							"code": "8336-0",
							"userSelected": false
						}
					],
					"text": "Weight Percentile"
				},
				"subject": {
					"reference": "Patient/f288c654-6885-4f48-999c-48d776dc06af"
				},
				"effectiveDateTime": "2024-07-13T15:21:00.000Z",
				"issued": "2024-07-13T15:22:59.000Z",
				"performer": [
					{
						"reference": "Practitioner/8085737b-28ec-4b23-8604-83fd20076933",
						"type": "Practitioner"
					}
				],
				"valueQuantity": {
					"value": 45.32
				}
			}
		},
		{
			"fullUrl": "http://example.org/fhir/Observation/cf8edc0e-8b4f-420a-ae68-4956a4c86d61",
			"resource": {
				"resourceType": "Observation",
				"id": "cf8edc0e-8b4f-420a-ae68-4956a4c86d61",
				"meta": {
					"profile": [
						"http://hl7.org/fhir/us/core/StructureDefinition/us-core-observation-screening-assessment"
					]
				},
				"text": {
					"status": "generated",
					"div": "<div xmlns=\"http://www.w3.org/1999/xhtml\">This is a simple narrative with only plain text</div>"
				},
				"status": "final",
				"category": [
					{
						"coding": [
							{
								"system": "http://hl7.org/fhir/us/core/CodeSystem/us-core-category",
								"code": "functional-status",
								"display": "Functional Status"
							}
						]
					},
					{
						"coding": [
							{
								"system": "http://terminology.hl7.org/CodeSystem/observation-category",
								"code": "survey",
								"display": "Survey"
							}
						]
					}
				],
				"code": {
					"coding": [
						{
							"system": "http://loinc.org",
							"code": "54109-4",
							"display": "Newborn hearing screen of Ear - right"
						}
					],
					"text": "Newborn hearing screen of Ear - right"
				},
				"subject": {
					"reference": "Patient/f288c654-6885-4f48-999c-48d776dc06af"
				},
				"effectiveDateTime": "2024-07-12T00:00:00Z",
				"performer": [
					{
						"reference": "Practitioner/8085737b-28ec-4b23-8604-83fd20076933",
						"display": "Practitioner"
					}
				],
				"valueCodeableConcept": {
					"coding": [
						{
							"system": "http://snomed.info/sct",
							"code": "164059009",
							"display": "O/E - hearing normal"
						}
					],
					"text": "O/E - hearing normal"
				}
			}
		},
		{
			"fullUrl": "http://example.org/fhir/Observation/bfd7390b-c10f-4a3a-9595-5d150e5fe273",
			"resource": {
				"resourceType": "Observation",
				"id": "bfd7390b-c10f-4a3a-9595-5d150e5fe273",
				"meta": {
					"profile": [
						"http://hl7.org/fhir/us/core/StructureDefinition/us-core-observation-screening-assessment"
					]
				},
				"text": {
					"status": "generated",
					"div": "<div xmlns=\"http://www.w3.org/1999/xhtml\">This is a simple narrative with only plain text</div>"
				},
				"status": "final",
				"category": [
					{
						"coding": [
							{
								"system": "http://hl7.org/fhir/us/core/CodeSystem/us-core-category",
								"code": "functional-status",
								"display": "Functional Status"
							}
						]
					},
					{
						"coding": [
							{
								"system": "http://terminology.hl7.org/CodeSystem/observation-category",
								"code": "survey",
								"display": "Survey"
							}
						]
					}
				],
				"code": {
					"coding": [
						{
							"system": "http://loinc.org",
							"code": "54108-6",
							"display": "Newborn hearing screen of Ear - left"
						}
					],
					"text": "Newborn hearing screen of Ear - left"
				},
				"subject": {
					"reference": "Patient/f288c654-6885-4f48-999c-48d776dc06af"
				},
				"effectiveDateTime": "2024-07-12T00:00:00Z",
				"performer": [
					{
						"reference": "Practitioner/8085737b-28ec-4b23-8604-83fd20076933",
						"display": "Practitioner"
					}
				],
				"valueCodeableConcept": {
					"coding": [
						{
							"system": "http://snomed.info/sct",
							"code": "183924009",
							"display": "Referral needed"
						}
					],
					"text": "Referral needed"
				}
			}
		},
		{
			"fullUrl": "http://example.org/fhir/Observation/d0181891-8d22-4b78-8b21-1839f15c66c4",
			"resource": {
				"resourceType": "Observation",
				"id": "d0181891-8d22-4b78-8b21-1839f15c66c4",
				"meta": {
					"profile": [
						"http://hl7.org/fhir/us/core/StructureDefinition/us-core-observation-screening-assessment"
					]
				},
				"text": {
					"status": "generated",
					"div": "<div xmlns=\"http://www.w3.org/1999/xhtml\">This is a simple narrative with only plain text</div>"
				},
				"status": "final",
				"category": [
					{
						"coding": [
							{
								"system": "http://hl7.org/fhir/us/core/CodeSystem/us-core-category",
								"code": "functional-status",
								"display": "Functional Status"
							}
						]
					},
					{
						"coding": [
							{
								"system": "http://terminology.hl7.org/CodeSystem/observation-category",
								"code": "survey",
								"display": "Survey"
							}
						]
					}
				],
				"code": {
					"coding": [
						{
							"system": "http://loinc.org",
							"code": "58232-0",
							"display": "Hearing loss risk indicators [Identifier]"
						}
					],
					"text": "Hearing loss risk indicators [Identifier]"
				},
				"subject": {
					"reference": "Patient/f288c654-6885-4f48-999c-48d776dc06af"
				},
				"effectiveDateTime": "2024-07-12T00:00:00Z",
				"performer": [
					{
						"reference": "Practitioner/8085737b-28ec-4b23-8604-83fd20076933",
						"display": "Practitioner"
					}
				],
				"valueCodeableConcept": {
					"coding": [
						{
							"system": "http://snomed.info/sct",
							"code": "178280004",
							"display": "Postnatal Infection"
						}
					],
					"text": "Postnatal Infection"
				}
			}
		},
		{
			"fullUrl": "http://example.org/fhir/Observation/795e9a0b-37d2-4204-b12a-136f91e8d6e1",
			"resource": {
				"resourceType": "Observation",
				"id": "795e9a0b-37d2-4204-b12a-136f91e8d6e1",
				"meta": {
					"profile": [
						"http://hl7.org/fhir/us/ph-library/StructureDefinition/us-ph-lab-result-observation"
					]
				},
				"text": {
					"status": "generated",
					"div": "<div xmlns=\"http://www.w3.org/1999/xhtml\">This is a simple narrative with only plain text</div>"
				},
				"status": "final",
				"category": [
					{
						"coding": [
							{
								"system": "http://terminology.hl7.org/CodeSystem/observation-category",
								"code": "laboratory",
								"display": "Laboratory"
							}
						],
						"text": "Laboratory"
					},
					{
						"coding": [
							{
								"system": "http://terminology.hl7.org/CodeSystem/observation-category",
								"code": "therapy",
								"display": "Therapy"
							}
						],
						"text": "Therapy"
					},
					{
						"coding": [
							{
								"system": "http://terminology.hl7.org/CodeSystem/observation-category",
								"code": "vital-signs",
								"display": "Vital Signs"
							}
						],
						"text": "Vital Signs"
					}
				],
				"code": {
					"coding": [
						{
							"system": "https://fhir.cerner.com/e8a84236-c258-4952-98b7-a6ff8a9c587a/codeSet/72",
							"code": "20564-1",
							"display": "Oxygen saturation in Arterial blood",
							"userSelected": true
						},
						{
							"system": "http://loinc.org",
							"code": "2708-6"
						},
						{
							"system": "http://loinc.org",
							"code": "59408-5"
						}
					],
					"text": "Oxygen saturation in Arterial blood"
				},
				"subject": {
					"reference": "Patient/f288c654-6885-4f48-999c-48d776dc06af"
				},
				"encounter": {
					"reference": "Encounter/42eede74-6328-44e4-8dcf-fd9f4057b464"
				},
				"effectiveDateTime": "2023-09-01T15:21:00.000Z",
				"issued": "2023-09-01T15:30:25.000Z",
				"performer": [
					{
						"extension": [
							{
								"url": "http://hl7.org/fhir/StructureDefinition/event-performerFunction",
								"valueCodeableConcept": {
									"coding": [
										{
											"system": "http://terminology.hl7.org/CodeSystem/v3-ParticipationType",
											"code": "LA",
											"display": "legal authenticator"
										}
									],
									"text": "legal authenticator"
								}
							}
						],
						"reference": "Practitioner/8085737b-28ec-4b23-8604-83fd20076933"
					}
				],
				"valueQuantity": {
					"value": 99,
					"unit": "%",
					"system": "http://unitsofmeasure.org",
					"code": "%"
				}
			}
		},
		{
			"fullUrl": "http://example.org/fhir/Observation/b082b6f7-4f39-46fc-837d-f4495d9652e6",
			"resource": {
				"resourceType": "Observation",
				"id": "b082b6f7-4f39-46fc-837d-f4495d9652e6",
				"meta": {
					"profile": [
						"http://hl7.org/fhir/us/core/StructureDefinition/us-core-simple-observation"
					]
				},
				"text": {
					"status": "generated",
					"div": "<div xmlns=\"http://www.w3.org/1999/xhtml\">This is a simple narrative with only plain text</div>"
				},
				"identifier": [
					{
						"system": "https://fhir.cerner.com/ceuuid",
						"value": "CE87caf4b7-9397-4667-9897-702218017c9e-197323277-2023090115302500"
					}
				],
				"status": "final",
				"category": [
					{
						"coding": [
							{
								"system": "http://terminology.hl7.org/CodeSystem/observation-category",
								"code": "vital-signs",
								"display": "Vital Signs",
								"userSelected": false
							}
						],
						"text": "Vital Signs"
					},
					{
						"coding": [
							{
								"system": "http://terminology.hl7.org/CodeSystem/observation-category",
								"code": "therapy",
								"display": "Therapy",
								"userSelected": false
							}
						],
						"text": "Therapy"
					}
				],
				"code": {
					"coding": [
						{
							"system": "https://fhir.cerner.com/e8a84236-c258-4952-98b7-a6ff8a9c587a/codeSet/72",
							"code": "22831122",
							"display": "Oxygen saturation in Arterial blood Location",
							"userSelected": true
						},
						{
							"system": "http://loinc.org",
							"code": "20081-6",
							"userSelected": false
						}
					],
					"text": "Oxygen saturation in Arterial blood Location"
				},
				"subject": {
					"reference": "Patient/f288c654-6885-4f48-999c-48d776dc06af"
				},
				"encounter": {
					"reference": "Encounter/42eede74-6328-44e4-8dcf-fd9f4057b464"
				},
				"effectiveDateTime": "2023-09-01T15:21:00.000Z",
				"issued": "2023-09-01T15:30:25.000Z",
				"performer": [
					{
						"extension": [
							{
								"url": "http://hl7.org/fhir/StructureDefinition/event-performerFunction",
								"valueCodeableConcept": {
									"coding": [
										{
											"system": "http://terminology.hl7.org/CodeSystem/v3-ParticipationType",
											"code": "LA",
											"display": "legal authenticator"
										}
									],
									"text": "legal authenticator"
								}
							},
							{
								"url": "http://hl7.org/fhir/StructureDefinition/event-performerFunction",
								"valueCodeableConcept": {
									"coding": [
										{
											"system": "http://terminology.hl7.org/CodeSystem/v3-ParticipationType",
											"code": "PPRF",
											"display": "primary performer"
										}
									],
									"text": "primary performer"
								}
							}
						],
						"reference": "Practitioner/8085737b-28ec-4b23-8604-83fd20076933"
					}
				],
				"valueCodeableConcept": {
					"coding": [
						{
							"system": "http://snomed.info/sct",
							"code": "78791008",
							"display": "Structure of right hand (body structure)",
							"userSelected": false
						}
					],
					"text": "Right hand"
				}
			}
		},
		{
			"fullUrl": "http://example.org/fhir/Observation/15f0a0fe-a3d6-4e78-bc91-5b95ac6ddeac",
			"resource": {
				"resourceType": "Observation",
				"id": "15f0a0fe-a3d6-4e78-bc91-5b95ac6ddeac",
				"meta": {
					"profile": [
						"http://hl7.org/fhir/us/core/StructureDefinition/us-core-vital-signs"
					]
				},
				"text": {
					"status": "generated",
					"div": "<div xmlns=\"http://www.w3.org/1999/xhtml\">This is a simple narrative with only plain text</div>"
				},
				"identifier": [
					{
						"system": "https://fhir.cerner.com/ceuuid",
						"value": "CE87caf4b7-9397-4667-9897-702218017c9e-197323273-2023090115225900"
					}
				],
				"status": "final",
				"category": [
					{
						"coding": [
							{
								"system": "http://terminology.hl7.org/CodeSystem/observation-category",
								"code": "vital-signs",
								"display": "Vital Signs",
								"userSelected": false
							}
						],
						"text": "Vital Signs"
					}
				],
				"code": {
					"coding": [
						{
							"system": "https://fhir.cerner.com/e8a84236-c258-4952-98b7-a6ff8a9c587a/codeSet/72",
							"code": "2571601133",
							"display": "Weight Z-Score",
							"userSelected": true
						}
					],
					"text": "Weight Z-Score"
				},
				"subject": {
					"reference": "Patient/f288c654-6885-4f48-999c-48d776dc06af"
				},
				"encounter": {
					"reference": "Encounter/42eede74-6328-44e4-8dcf-fd9f4057b464"
				},
				"effectiveDateTime": "2023-09-01T15:21:00.000Z",
				"issued": "2023-09-01T15:22:59.000Z",
				"performer": [
					{
						"extension": [
							{
								"url": "http://hl7.org/fhir/StructureDefinition/event-performerFunction",
								"valueCodeableConcept": {
									"coding": [
										{
											"system": "http://terminology.hl7.org/CodeSystem/v3-ParticipationType",
											"code": "LA",
											"display": "legal authenticator"
										}
									],
									"text": "legal authenticator"
								}
							},
							{
								"url": "http://hl7.org/fhir/StructureDefinition/event-performerFunction",
								"valueCodeableConcept": {
									"coding": [
										{
											"system": "http://terminology.hl7.org/CodeSystem/v3-ParticipationType",
											"code": "PPRF",
											"display": "primary performer"
										}
									],
									"text": "primary performer"
								}
							}
						],
						"reference": "Practitioner/8085737b-28ec-4b23-8604-83fd20076933"
					}
				],
				"valueQuantity": {
					"value": -0.12
				},
				"note": [
					{
						"authorReference": {
							"reference": "Practitioner/8085737b-28ec-4b23-8604-83fd20076933"
						},
						"time": "2023-09-01T15:22:59Z",
						"text": "^~:!ZScore Source -CDC-WHO"
					}
				]
			}
		},
		{
			"fullUrl": "http://example.org/fhir/Observation/4dc91a6b-52d7-4cb2-9b2e-13c6b42fbf50",
			"resource": {
				"resourceType": "Observation",
				"id": "4dc91a6b-52d7-4cb2-9b2e-13c6b42fbf50",
				"meta": {
					"profile": [
						"http://hl7.org/fhir/us/core/StructureDefinition/us-core-vital-signs"
					]
				},
				"text": {
					"status": "generated",
					"div": "<div xmlns=\"http://www.w3.org/1999/xhtml\">This is a simple narrative with only plain text</div>"
				},
				"identifier": [
					{
						"system": "https://fhir.cerner.com/ceuuid",
						"value": "CE87caf4b7-9397-4667-9897-702218017c9e-197323271-2023090115225900"
					}
				],
				"status": "final",
				"category": [
					{
						"coding": [
							{
								"system": "http://terminology.hl7.org/CodeSystem/observation-category",
								"code": "vital-signs",
								"display": "Vital Signs",
								"userSelected": false
							}
						],
						"text": "Vital Signs"
					}
				],
				"code": {
					"coding": [
						{
							"system": "https://fhir.cerner.com/e8a84236-c258-4952-98b7-a6ff8a9c587a/codeSet/72",
							"code": "8336-0",
							"display": "Weight Percentile",
							"userSelected": true
						},
						{
							"system": "http://loinc.org",
							"code": "8336-0",
							"userSelected": false
						}
					],
					"text": "Weight Percentile"
				},
				"subject": {
					"reference": "Patient/f288c654-6885-4f48-999c-48d776dc06af"
				},
				"encounter": {
					"reference": "Encounter/42eede74-6328-44e4-8dcf-fd9f4057b464"
				},
				"effectiveDateTime": "2023-09-01T15:21:00.000Z",
				"issued": "2023-09-01T15:22:59.000Z",
				"performer": [
					{
						"extension": [
							{
								"url": "http://hl7.org/fhir/StructureDefinition/event-performerFunction",
								"valueCodeableConcept": {
									"coding": [
										{
											"system": "http://terminology.hl7.org/CodeSystem/v3-ParticipationType",
											"code": "LA",
											"display": "legal authenticator"
										}
									],
									"text": "legal authenticator"
								}
							},
							{
								"url": "http://hl7.org/fhir/StructureDefinition/event-performerFunction",
								"valueCodeableConcept": {
									"coding": [
										{
											"system": "http://terminology.hl7.org/CodeSystem/v3-ParticipationType",
											"code": "PPRF",
											"display": "primary performer"
										}
									],
									"text": "primary performer"
								}
							}
						],
						"reference": "Practitioner/8085737b-28ec-4b23-8604-83fd20076933"
					}
				],
				"valueQuantity": {
					"value": 45.32
				},
				"note": [
					{
						"authorReference": {
							"reference": "Practitioner/8085737b-28ec-4b23-8604-83fd20076933"
						},
						"time": "2023-09-01T15:22:59Z",
						"text": "^~:!Percentile Source -CDC-WHO"
					}
				]
			}
		},
		{
			"fullUrl": "http://example.org/fhir/Observation/8db63145-0bb8-4ce0-8f50-815f5708c41d",
			"resource": {
				"resourceType": "Observation",
				"id": "8db63145-0bb8-4ce0-8f50-815f5708c41d",
				"meta": {
					"profile": [
						"http://hl7.org/fhir/us/core/StructureDefinition/us-core-vital-signs"
					]
				},
				"text": {
					"status": "generated",
					"div": "<div xmlns=\"http://www.w3.org/1999/xhtml\">This is a simple narrative with only plain text</div>"
				},
				"identifier": [
					{
						"system": "https://fhir.cerner.com/ceuuid",
						"value": "CE87caf4b7-9397-4667-9897-702218017c9e-197323269-2023090115225900"
					}
				],
				"status": "final",
				"category": [
					{
						"coding": [
							{
								"system": "http://terminology.hl7.org/CodeSystem/observation-category",
								"code": "vital-signs",
								"display": "Vital Signs",
								"userSelected": false
							}
						],
						"text": "Vital Signs"
					}
				],
				"code": {
					"coding": [
						{
							"system": "https://fhir.cerner.com/e8a84236-c258-4952-98b7-a6ff8a9c587a/codeSet/72",
							"code": "2571601141",
							"display": "Height Z-Score",
							"userSelected": true
						}
					],
					"text": "Height Z-Score"
				},
				"subject": {
					"reference": "Patient/f288c654-6885-4f48-999c-48d776dc06af"
				},
				"encounter": {
					"reference": "Encounter/42eede74-6328-44e4-8dcf-fd9f4057b464"
				},
				"effectiveDateTime": "2023-09-01T15:21:00.000Z",
				"issued": "2023-09-01T15:22:58.000Z",
				"performer": [
					{
						"extension": [
							{
								"url": "http://hl7.org/fhir/StructureDefinition/event-performerFunction",
								"valueCodeableConcept": {
									"coding": [
										{
											"system": "http://terminology.hl7.org/CodeSystem/v3-ParticipationType",
											"code": "LA",
											"display": "legal authenticator"
										}
									],
									"text": "legal authenticator"
								}
							},
							{
								"url": "http://hl7.org/fhir/StructureDefinition/event-performerFunction",
								"valueCodeableConcept": {
									"coding": [
										{
											"system": "http://terminology.hl7.org/CodeSystem/v3-ParticipationType",
											"code": "PPRF",
											"display": "primary performer"
										}
									],
									"text": "primary performer"
								}
							}
						],
						"reference": "Practitioner/8085737b-28ec-4b23-8604-83fd20076933"
					}
				],
				"valueQuantity": {
					"value": -0.17
				},
				"note": [
					{
						"authorReference": {
							"reference": "Practitioner/8085737b-28ec-4b23-8604-83fd20076933"
						},
						"time": "2023-09-01T15:22:58Z",
						"text": "^~:!ZScore Source -CDC-WHO"
					}
				]
			}
		},
		{
			"fullUrl": "http://example.org/fhir/Observation/3ca6505d-aa78-466d-ac22-8b51dbf39b52",
			"resource": {
				"resourceType": "Observation",
				"id": "3ca6505d-aa78-466d-ac22-8b51dbf39b52",
				"meta": {
					"profile": [
						"http://hl7.org/fhir/us/core/StructureDefinition/us-core-vital-signs"
					]
				},
				"text": {
					"status": "generated",
					"div": "<div xmlns=\"http://www.w3.org/1999/xhtml\">This is a simple narrative with only plain text</div>"
				},
				"identifier": [
					{
						"system": "https://fhir.cerner.com/ceuuid",
						"value": "CE87caf4b7-9397-4667-9897-702218017c9e-197323267-2023090115225800"
					}
				],
				"status": "final",
				"category": [
					{
						"coding": [
							{
								"system": "http://terminology.hl7.org/CodeSystem/observation-category",
								"code": "vital-signs",
								"display": "Vital Signs",
								"userSelected": false
							}
						],
						"text": "Vital Signs"
					}
				],
				"code": {
					"coding": [
						{
							"system": "https://fhir.cerner.com/e8a84236-c258-4952-98b7-a6ff8a9c587a/codeSet/72",
							"code": "2571601137",
							"display": "Height Percentile",
							"userSelected": true
						},
						{
							"system": "http://loinc.org",
							"code": "8303-0",
							"userSelected": false
						}
					],
					"text": "Height Percentile"
				},
				"subject": {
					"reference": "Patient/f288c654-6885-4f48-999c-48d776dc06af"
				},
				"encounter": {
					"reference": "Encounter/42eede74-6328-44e4-8dcf-fd9f4057b464"
				},
				"effectiveDateTime": "2023-09-01T15:21:00.000Z",
				"issued": "2023-09-01T15:22:58.000Z",
				"performer": [
					{
						"extension": [
							{
								"url": "http://hl7.org/fhir/StructureDefinition/event-performerFunction",
								"valueCodeableConcept": {
									"coding": [
										{
											"system": "http://terminology.hl7.org/CodeSystem/v3-ParticipationType",
											"code": "LA",
											"display": "legal authenticator"
										}
									],
									"text": "legal authenticator"
								}
							},
							{
								"url": "http://hl7.org/fhir/StructureDefinition/event-performerFunction",
								"valueCodeableConcept": {
									"coding": [
										{
											"system": "http://terminology.hl7.org/CodeSystem/v3-ParticipationType",
											"code": "PPRF",
											"display": "primary performer"
										}
									],
									"text": "primary performer"
								}
							}
						],
						"reference": "Practitioner/8085737b-28ec-4b23-8604-83fd20076933"
					}
				],
				"valueQuantity": {
					"value": 43.16
				},
				"note": [
					{
						"authorReference": {
							"reference": "Practitioner/8085737b-28ec-4b23-8604-83fd20076933"
						},
						"time": "2023-09-01T15:22:58Z",
						"text": "^~:!Percentile Source -CDC-WHO"
					}
				]
			}
		},
		{
			"fullUrl": "http://example.org/fhir/Condition/a2313732-4abd-42cb-8bbf-dd777e5e3b20",
			"resource": {
				"resourceType": "Condition",
				"id": "a2313732-4abd-42cb-8bbf-dd777e5e3b20",
				"meta": {
					"profile": [
						"http://hl7.org/fhir/us/ph-library/StructureDefinition/us-ph-condition-problems-health-concerns"
					]
				},
				"text": {
					"status": "generated",
					"div": "<div xmlns=\"http://www.w3.org/1999/xhtml\">This is a simple narrative with only plain text</div>"
				},
				"clinicalStatus": {
					"coding": [
						{
							"system": "http://terminology.hl7.org/CodeSystem/condition-clinical",
							"code": "active",
							"display": "Active"
						}
					],
					"text": "Active"
				},
				"verificationStatus": {
					"coding": [
						{
							"system": "http://terminology.hl7.org/CodeSystem/condition-ver-status",
							"code": "confirmed",
							"display": "Confirmed"
						}
					],
					"text": "Confirmed"
				},
				"category": [
					{
						"coding": [
							{
								"system": "http://terminology.hl7.org/CodeSystem/condition-category",
								"code": "problem-list-item",
								"display": "Problem List Item"
							}
						],
						"text": "Problem"
					}
				],
				"code": {
					"coding": [
						{
							"system": "http://snomed.info/sct",
							"code": "77386006",
							"display": "Pregnancy (finding)"
						}
					],
					"text": "Pregnancy (finding)"
				},
				"subject": {
					"reference": "Patient/f288c654-6885-4f48-999c-48d776dc06af",
					"display": "Hyper A Unlucky"
				},
				"onsetDateTime": "2023-09-05T00:00:00Z"
			}
		},
		{
			"fullUrl": "http://example.org/fhir/Condition/3a02d8c2-be4a-4772-810a-ceb9dfd6f80a",
			"resource": {
				"resourceType": "Condition",
				"id": "3a02d8c2-be4a-4772-810a-ceb9dfd6f80a",
				"meta": {
					"profile": [
						"http://hl7.org/fhir/us/ph-library/StructureDefinition/us-ph-condition-encounter-diagnosis"
					]
				},
				"text": {
					"status": "generated",
					"div": "<div xmlns=\"http://www.w3.org/1999/xhtml\">This is a simple narrative with only plain text</div>"
				},
				"clinicalStatus": {
					"coding": [
						{
							"system": "http://terminology.hl7.org/CodeSystem/condition-clinical",
							"code": "active",
							"display": "Active"
						}
					],
					"text": "Active"
				},
				"verificationStatus": {
					"coding": [
						{
							"system": "http://terminology.hl7.org/CodeSystem/condition-ver-status",
							"code": "confirmed",
							"display": "Confirmed"
						}
					],
					"text": "Confirmed"
				},
				"category": [
					{
						"coding": [
							{
								"system": "http://terminology.hl7.org/CodeSystem/condition-category",
								"code": "encounter-diagnosis",
								"display": "Encounter Diagnosis"
							}
						],
						"text": "Encounter Diagnosis"
					}
				],
				"code": {
					"coding": [
						{
							"system": "http://snomed.info/sct",
							"code": "76272004",
							"display": "Syphilis (disorder)"
						}
					],
					"text": "Syphilis (disorder)"
				},
				"subject": {
					"reference": "Patient/f288c654-6885-4f48-999c-48d776dc06af",
					"display": "Hyper A Unlucky"
				},
				"onsetDateTime": "2023-12-15T00:00:00Z"
			}
		},
		{
			"fullUrl": "http://example.org/fhir/DiagnosticReport/3a6390e2-7405-44bf-b968-16224c12cac0",
			"resource": {
				"resourceType": "DiagnosticReport",
				"id": "3a6390e2-7405-44bf-b968-16224c12cac0",
				"meta": {
					"profile": [
						"http://hl7.org/fhir/us/core/StructureDefinition/us-core-diagnosticreport-lab"
					]
				},
				"text": {
					"status": "generated",
					"div": "<div xmlns=\"http://www.w3.org/1999/xhtml\">This is a simple narrative with only plain text</div>"
				},
				"status": "final",
				"category": [
					{
						"coding": [
							{
								"system": "http://terminology.hl7.org/CodeSystem/v2-0074",
								"code": "LAB",
								"display": "Laboratory"
							}
						]
					}
				],
				"code": {
					"coding": [
						{
							"system": "http://loinc.org",
							"code": "LP70657-9",
							"display": "RPR"
						}
					]
				},
				"subject": {
					"reference": "Patient/f288c654-6885-4f48-999c-48d776dc06af",
					"display": "Hyper A Unlucky"
				},
				"effectiveDateTime": "2020-12-15",
				"issued": "2023-12-15T14:09:35-05:00",
				"performer": [
					{
						"reference": "Organization/cc8a572b-0ae5-4497-97cf-bab563cbb131",
						"display": "Better Health Community Medical Center"
					}
				],
				"result": [
					{
						"reference": "Observation/0a33326b-fbf2-4a59-a785-ad9ba5c40ce0",
						"display": "RPR Result"
					}
				]
			}
		},
		{
			"fullUrl": "http://example.org/fhir/MedicationRequest/49725a38-06d2-4a40-9e67-f9845dd544ab",
			"resource": {
				"resourceType": "MedicationRequest",
				"id": "49725a38-06d2-4a40-9e67-f9845dd544ab",
				"meta": {
					"profile": [
						"http://hl7.org/fhir/us/core/StructureDefinition/us-core-medicationrequest"
					]
				},
				"text": {
					"status": "generated",
					"div": "<div xmlns=\"http://www.w3.org/1999/xhtml\">This is a simple narrative with only plain text</div>"
				},
				"status": "completed",
				"intent": "order",
				"medicationCodeableConcept": {
					"coding": [
						{
							"system": "http://www.nlm.nih.gov/research/umls/rxnorm",
							"code": "2671695",
							"display": "penicillin G benzathine 2400000 UNT Injection"
						}
					],
					"text": "penicillin G benzathine 2400000 UNT Injection"
				},
				"subject": {
					"reference": "Patient/f288c654-6885-4f48-999c-48d776dc06af",
					"display": "Hyper A Unlucky"
				},
				"authoredOn": "2023-12-15T15:24:55-05:00",
				"requester": {
					"reference": "Practitioner/8085737b-28ec-4b23-8604-83fd20076933",
					"display": "Practitioner"
				},
				"dosageInstruction": [
					{
						"text": "2.4 million units IM as a single dose"
					}
				]
			}
		},
		{
			"fullUrl": "http://example.org/fhir/MedicationAdministration/8093a4d2-754f-41d8-8ea3-fb1d43d64eb9",
			"resource": {
				"resourceType": "MedicationAdministration",
				"id": "8093a4d2-754f-41d8-8ea3-fb1d43d64eb9",
				"meta": {
					"profile": [
						"http://hl7.org/fhir/us/ph-library/StructureDefinition/us-ph-medicationadministration"
					]
				},
				"text": {
					"status": "generated",
					"div": "<div xmlns=\"http://www.w3.org/1999/xhtml\">This is a simple narrative with only plain text</div>"
				},
				"status": "completed",
				"medicationCodeableConcept": {
					"coding": [
						{
							"system": "http://www.nlm.nih.gov/research/umls/rxnorm",
							"code": "2671695",
							"display": "penicillin G benzathine 2400000 UNT Injection"
						}
					]
				},
				"subject": {
					"reference": "Patient/f288c654-6885-4f48-999c-48d776dc06af",
					"display": "Hyper A Unlucky"
				},
				"effectivePeriod": {
					"start": "2023-12-15T15:47:03-05:00",
					"end": "2023-12-15T15:47:03-05:00"
				},
				"performer": [
					{
						"actor": {
							"reference": "Practitioner/8085737b-28ec-4b23-8604-83fd20076933",
							"display": "Practitioner"
						}
					}
				],
				"request": {
					"reference": "MedicationRequest/49725a38-06d2-4a40-9e67-f9845dd544ab",
					"display": "Medication order for penicillin G benzathine 2400000 UNT Injection"
				},
				"dosage": {
					"text": "20 Units SC before breakfast",
					"route": {
						"coding": [
							{
								"system": "http://snomed.info/sct",
								"code": "255559005",
								"display": "Intramuscular (qualifier value)"
							}
						]
					},
					"dose": {
						"value": 2400000,
						"unit": "U",
						"system": "http://unitsofmeasure.org",
						"code": "U"
					}
				}
			}
		},
		{
			"fullUrl": "http://example.org/fhir/Encounter/87a18604-f377-4c2c-9f64-12134f1dd56e",
			"resource": {
				"resourceType": "Encounter",
				"id": "87a18604-f377-4c2c-9f64-12134f1dd56e",
				"meta": {
					"profile": [
						"http://hl7.org/fhir/us/ph-library/StructureDefinition/us-ph-encounter"
					]
				},
				"text": {
					"status": "generated",
					"div": "<div xmlns=\"http://www.w3.org/1999/xhtml\">This is a simple narrative with only plain text</div>"
				},
				"identifier": [
					{
						"system": "http://better.health.insurance.com/Encounter",
						"value": "8367c3d4c58524dc9cc40b"
					}
				],
				"status": "in-progress",
				"class": {
					"system": "http://terminology.hl7.org/CodeSystem/v3-ActCode"
				},
				"type": [
					{
						"coding": [
							{
								"system": "http://www.ama-assn.org/go/cpt",
								"code": "99202"
							}
						],
						"text": "Office Visit"
					}
				],
				"subject": {
					"reference": "Patient/f288c654-6885-4f48-999c-48d776dc06af",
					"display": "Hyper A Unlucky"
				},
				"participant": [
					{
						"individual": {
							"reference": "Practitioner/8085737b-28ec-4b23-8604-83fd20076933",
							"display": "Practitioner"
						}
					}
				],
				"period": {
					"start": "2023-12-15T10:14:36-05:00",
					"end": "2023-12-15T16:07:59+00:00"
				},
				"reasonReference": [
					{
						"reference": "Condition/a2313732-4abd-42cb-8bbf-dd777e5e3b20",
						"display": "Suspected Syphilis"
					}
				],
				"location": [
					{
						"location": {
							"reference": "Location/d1636409-8269-4758-9130-20daf48d02f6",
							"display": "Clinic Bldg A, Salem Medical Center, 4444 Healthcare Drive, Ann Arbor MI, 99999"
						}
					}
				],
				"serviceProvider": {
					"reference": "Organization/cc8a572b-0ae5-4497-97cf-bab563cbb131",
					"display": "Better Health Community Medical Center"
				}
			}
		},
		{
			"fullUrl": "http://example.org/fhir/Observation/212723e5-1ce0-400a-bb14-caacd3e36bbc",
			"resource": {
				"resourceType": "Observation",
				"id": "212723e5-1ce0-400a-bb14-caacd3e36bbc",
				"meta": {
					"profile": [
						"http://hl7.org/fhir/us/ph-library/StructureDefinition/us-ph-pregnancy-status-observation"
					]
				},
				"text": {
					"status": "generated",
					"div": "<div xmlns=\"http://www.w3.org/1999/xhtml\">This is a simple narrative with only plain text</div>"
				},
				"extension": [
					{
						"url": "http://hl7.org/fhir/us/ph-library/StructureDefinition/us-ph-date-determined-extension",
						"valueDateTime": "2017-10-01"
					}
				],
				"status": "final",
				"category": [
					{
						"coding": [
							{
								"system": "http://terminology.hl7.org/CodeSystem/observation-category",
								"code": "social-history"
							}
						]
					}
				],
				"code": {
					"coding": [
						{
							"system": "http://loinc.org",
							"code": "82810-3",
							"display": "Pregnancy status"
						}
					]
				},
				"subject": {
					"reference": "Patient/f288c654-6885-4f48-999c-48d776dc06af",
					"display": "Hyper A Unlucky"
				},
				"effectiveDateTime": "2023-09-05",
				"performer": [
					{
						"reference": "Practitioner/8085737b-28ec-4b23-8604-83fd20076933",
						"display": "Practitioner"
					}
				],
				"valueCodeableConcept": {
					"coding": [
						{
							"system": "http://snomed.info/sct",
							"code": "77386006",
							"display": "Pregnancy (finding)"
						}
					]
				},
				"method": {
					"coding": [
						{
							"system": "http://snomed.info/sct",
							"code": "16310003",
							"display": "Ultrasonography (procedure)"
						}
					]
				},
				"component": [
					{
						"extension": [
							{
								"url": "http://hl7.org/fhir/us/ph-library/StructureDefinition/us-ph-date-determined-extension",
								"valueDateTime": "2017-10-01"
							}
						],
						"code": {
							"coding": [
								{
									"system": "http://loinc.org",
									"code": "53691-2",
									"display": "Gestational age Estimated from patient reported estimated date of conception"
								}
							]
						},
						"valueQuantity": {
							"value": 143,
							"unit": "d"
						}
					},
					{
						"extension": [
							{
								"url": "http://hl7.org/fhir/us/ph-library/StructureDefinition/us-ph-date-determined-extension",
								"valueDateTime": "2017-10-01"
							}
						],
						"code": {
							"coding": [
								{
									"system": "http://loinc.org",
									"code": "57064-8",
									"display": "Delivery date Estimated from date fundal height reaches umb"
								}
							]
						},
						"valueDateTime": "2018-05-01"
					}
				]
			}
		},
		{
			"fullUrl": "http://example.org/fhir/Observation/08dec99f-f80c-48a9-9569-e77650442b02",
			"resource": {
				"resourceType": "Observation",
				"id": "08dec99f-f80c-48a9-9569-e77650442b02",
				"meta": {
					"profile": [
						"http://hl7.org/fhir/us/ph-library/StructureDefinition/us-ph-pregnancy-outcome-observation"
					]
				},
				"text": {
					"status": "generated",
					"div": "<div xmlns=\"http://www.w3.org/1999/xhtml\">This is a simple narrative with only plain text</div>"
				},
				"status": "final",
				"category": [
					{
						"coding": [
							{
								"system": "http://terminology.hl7.org/CodeSystem/observation-category",
								"code": "social-history"
							}
						]
					}
				],
				"code": {
					"coding": [
						{
							"system": "http://loinc.org",
							"code": "63893-2",
							"display": "Outcome of pregnancy"
						}
					]
				},
				"subject": {
					"reference": "Patient/f288c654-6885-4f48-999c-48d776dc06af",
					"display": "Hyper A Unlucky"
				},
				"focus": [
					{
						"reference": "Observation/212723e5-1ce0-400a-bb14-caacd3e36bbc",
						"display": "Pregnancy (finding)"
					}
				],
				"effectiveDateTime": "2024-01-05",
				"performer": [
					{
						"reference": "Practitioner/8085737b-28ec-4b23-8604-83fd20076933",
						"display": "Practitioner"
					}
				],
				"valueCodeableConcept": {
					"coding": [
						{
							"system": "http://snomed.info/sct",
							"code": "21243004",
							"display": "Term birth of newborn (finding)"
						}
					]
				},
				"component": [
					{
						"code": {
							"coding": [
								{
									"system": "http://loinc.org",
									"code": "73771-8",
									"display": "Birth order"
								}
							]
						},
						"valueInteger": 1
					}
				]
			}
		},
		{
			"fullUrl": "http://example.org/fhir/ServiceRequest/6af1f84c-9592-4f82-bec8-963ab55f5e89",
			"resource": {
				"resourceType": "ServiceRequest",
				"id": "6af1f84c-9592-4f82-bec8-963ab55f5e89",
				"meta": {
					"profile": [
						"http://hl7.org/fhir/us/core/StructureDefinition/us-core-servicerequest"
					]
				},
				"text": {
					"status": "generated",
					"div": "<div xmlns=\"http://www.w3.org/1999/xhtml\">This is a simple narrative with only plain text</div>"
				},
				"identifier": [
					{
						"type": {
							"coding": [
								{
									"system": "http://terminology.hl7.org/CodeSystem/v2-0203",
									"code": "PLAC"
								}
							],
							"text": "Placer"
						},
						"system": "urn:oid:1.3.4.5.6.7",
						"value": "2345234234234"
					}
				],
				"status": "completed",
				"intent": "original-order",
				"code": {
					"coding": [
						{
							"system": "http://loinc.org",
							"code": "98212-4",
							"display": "Reagin Ab and Treponema pallidum IgG and IgM and total panel - Serum"
						}
					],
					"text": "Rapid Plasma Reagin test (RPR)"
				},
				"subject": {
					"reference": "Patient/f288c654-6885-4f48-999c-48d776dc06af",
					"display": "Hyper A Unlucky"
				},
				"encounter": {
					"reference": "Encounter/87a18604-f377-4c2c-9f64-12134f1dd56e",
					"display": "Encounter for symptoms of syphilis"
				},
				"authoredOn": "2023-12-15T11:56:15-05:00",
				"requester": {
					"reference": "Practitioner/8085737b-28ec-4b23-8604-83fd20076933",
					"display": "Practitioner"
				},
				"reasonReference": [
					{
						"reference": "Condition/a2313732-4abd-42cb-8bbf-dd777e5e3b20",
						"display": "Suspected Syphilis"
					}
				]
			}
		},
		{
			"fullUrl": "http://example.org/fhir/Observation/3bc88f73-c57e-4c0f-b02b-89a46f5b6759",
			"resource": {
				"resourceType": "Observation",
				"id": "3bc88f73-c57e-4c0f-b02b-89a46f5b6759",
				"meta": {
					"profile": [
						"http://hl7.org/fhir/us/ph-library/StructureDefinition/us-ph-lab-result-observation"
					]
				},
				"text": {
					"status": "generated",
					"div": "<div xmlns=\"http://www.w3.org/1999/xhtml\">This is a simple narrative with only plain text</div>"
				},
				"status": "final",
				"category": [
					{
						"coding": [
							{
								"system": "http://terminology.hl7.org/CodeSystem/observation-category",
								"code": "laboratory",
								"display": "Laboratory"
							}
						],
						"text": "Laboratory"
					}
				],
				"code": {
					"coding": [
						{
							"system": "http://loinc.org",
							"code": "21613-5",
							"display": "Chlamydia trachomatis DNA [Presence] in Specimen by NAA with probe detection"
						}
					],
					"text": "Chlamydia trachomatis DNA [Presence] in Specimen by NAA with probe detection"
				},
				"subject": {
					"reference": "Patient/f288c654-6885-4f48-999c-48d776dc06af"
				},
				"effectiveDateTime": "2024-03-12",
				"performer": [
					{
						"reference": "Practitioner/8085737b-28ec-4b23-8604-83fd20076933",
						"display": "Practitioner"
					}
				],
				"valueCodeableConcept": {
					"coding": [
						{
							"system": "http://snomed.info/sct",
							"code": "260373001",
							"display": "Detected"
						}
					],
					"text": "Detected"
				},
				"interpretation": [
					{
						"coding": [
							{
								"system": "http://terminology.hl7.org/CodeSystem/v3-ObservationInterpretation",
								"code": "DET",
								"display": "Detected"
							}
						],
						"text": "Detected"
					}
				]
			}
		},
		{
			"fullUrl": "http://example.org/fhir/MedicationRequest/3bc88f73-c57e-4c0f-b02b-89a46f5b6739",
			"resource": {
				"resourceType": "MedicationRequest",
				"id": "3bc88f73-c57e-4c0f-b02b-89a46f5b6739",
				"meta": {
					"profile": [
						"http://hl7.org/fhir/us/core/StructureDefinition/us-core-medicationrequest"
					]
				},
				"text": {
					"status": "generated",
					"div": "<div xmlns=\"http://www.w3.org/1999/xhtml\">This is a simple narrative with only plain text</div>"
				},
				"status": "active",
				"intent": "original-order",
				"medicationCodeableConcept": {
					"coding": [
						{
							"system": "http://www.nlm.nih.gov/research/umls/rxnorm",
							"code": "434692",
							"display": "azithromycin 1000 MG"
						}
					],
					"text": "azithromycin 1000 MG"
				},
				"subject": {
					"reference": "Patient/f288c654-6885-4f48-999c-48d776dc06af"
				},
				"authoredOn": "2024-03-12",
				"requester": {
					"reference": "PractitionerRole/d0e6a570-9d65-40ca-884a-60f6dcc252cb"
				},
				"reasonCode": [
					{
						"coding": [
							{
								"system": "http://hl7.org/fhir/sid/icd-10-cm",
								"code": "A74.9",
								"display": "Chlamydial infection, unspecified"
							}
						],
						"text": "Chlamydial infection, unspecified"
					}
				],
				"reasonReference": [
					{
						"reference": "Condition/c7ae0606-d0df-4ffd-a535-91697eabf9d5"
					}
				],
				"dosageInstruction": [
					{
						"text": "Single oral dose"
					}
				]
			}
		},
		{
			"fullUrl": "http://example.org/fhir/Condition/3bc88fa3-c57e-4c0f-b02b-89a46f5b6739",
			"resource": {
				"resourceType": "Condition",
				"id": "3bc88fa3-c57e-4c0f-b02b-89a46f5b6739",
				"meta": {
					"profile": [
						"http://hl7.org/fhir/us/ph-library/StructureDefinition/us-ph-condition-encounter-diagnosis"
					]
				},
				"text": {
					"status": "generated",
					"div": "<div xmlns=\"http://www.w3.org/1999/xhtml\">This is a simple narrative with only plain text</div>"
				},
				"category": [
					{
						"coding": [
							{
								"system": "http://terminology.hl7.org/CodeSystem/condition-category",
								"code": "encounter-diagnosis",
								"display": "Encounter Diagnosis"
							}
						],
						"text": "Encounter Diagnosis"
					}
				],
				"code": {
					"coding": [
						{
							"system": "http://hl7.org/fhir/sid/icd-10-cm",
							"code": "A74.9",
							"display": "Chlamydial infection, unspecified"
						}
					],
					"text": "Chlamydial infection, unspecified"
				},
				"subject": {
					"reference": "Patient/f288c654-6885-4f48-999c-48d776dc06af",
					"type": "Patient"
				},
				"onsetDateTime": "2024-03-12T17:43:27.663+00:00"
			}
		},
		{
			"fullUrl": "http://example.org/fhir/Observation/6d22c4f2-1e19-42c7-8618-ed0f6b8e4f7b",
			"resource": {
				"resourceType": "Observation",
				"id": "6d22c4f2-1e19-42c7-8618-ed0f6b8e4f7b",
				"meta": {
					"profile": [
						"http://hl7.org/fhir/us/ph-library/StructureDefinition/us-ph-lab-result-observation"
					]
				},
				"text": {
					"status": "generated",
					"div": "<div xmlns=\"http://www.w3.org/1999/xhtml\">This is a simple narrative with only plain text</div>"
				},
				"status": "final",
				"category": [
					{
						"coding": [
							{
								"system": "http://terminology.hl7.org/CodeSystem/observation-category",
								"code": "laboratory",
								"display": "Laboratory"
							}
						],
						"text": "Laboratory"
					}
				],
				"code": {
					"coding": [
						{
							"system": "http://loinc.org",
							"code": "21613-5",
							"display": "Chlamydia trachomatis DNA [Presence] in Specimen by NAA with probe detection"
						}
					],
					"text": "Chlamydia trachomatis DNA [Presence] in Specimen by NAA with probe detection"
				},
				"subject": {
					"reference": "Patient/f288c654-6885-4f48-999c-48d776dc06af"
				},
				"effectiveDateTime": "2000-04-04",
				"performer": [
					{
						"reference": "Practitioner/8085737b-28ec-4b23-8604-83fd20076933",
						"display": "Practitioner"
					}
				],
				"valueCodeableConcept": {
					"coding": [
						{
							"system": "http://snomed.info/sct",
							"code": "260415000",
							"display": "Not Detected"
						}
					],
					"text": "Not Detected"
				},
				"interpretation": [
					{
						"coding": [
							{
								"system": "http://terminology.hl7.org/CodeSystem/v3-ObservationInterpretation",
								"code": "N",
								"display": "Normal"
							}
						],
						"text": "Normal"
					}
				]
			}
		},
		{
			"fullUrl": "http://example.org/fhir/Observation/fc75173f-d59c-4cbf-af0e-39447630843e",
			"resource": {
				"resourceType": "Observation",
				"id": "fc75173f-d59c-4cbf-af0e-39447630843e",
				"meta": {
					"profile": [
						"http://hl7.org/fhir/us/ph-library/StructureDefinition/us-ph-lab-result-observation"
					]
				},
				"text": {
					"status": "generated",
					"div": "<div xmlns=\"http://www.w3.org/1999/xhtml\">This is a simple narrative with only plain text</div>"
				},
				"status": "final",
				"category": [
					{
						"coding": [
							{
								"system": "http://terminology.hl7.org/CodeSystem/observation-category",
								"code": "laboratory",
								"display": "Laboratory"
							}
						],
						"text": "Laboratory"
					}
				],
				"code": {
					"coding": [
						{
							"system": "http://loinc.org",
							"code": "24111-7",
							"display": "Neisseria gonorrhoeae DNA [Presence] in Specimen by NAA with probe detection"
						}
					],
					"text": "Neisseria gonorrhoeae DNA [Presence] in Specimen by NAA with probe detection"
				},
				"subject": {
					"reference": "Patient/f288c654-6885-4f48-999c-48d776dc06af"
				},
				"effectiveDateTime": "2000-04-04",
				"performer": [
					{
						"reference": "Practitioner/8085737b-28ec-4b23-8604-83fd20076933",
						"display": "Practitioner"
					}
				],
				"valueCodeableConcept": {
					"coding": [
						{
							"system": "http://snomed.info/sct",
							"code": "260373001",
							"display": "Detected"
						}
					],
					"text": "Detected"
				},
				"interpretation": [
					{
						"coding": [
							{
								"system": "http://terminology.hl7.org/CodeSystem/v3-ObservationInterpretation",
								"code": "DET",
								"display": "Detected"
							}
						],
						"text": "Detected"
					}
				],
				"specimen": {
					"reference": "Specimen/ca9126b3-7fb1-4b7d-92af-33673f69b7c2"
				}
			}
		},
		{
			"fullUrl": "http://example.org/fhir/Specimen/ca9126b3-7fb1-4b7d-92af-33673f69b7c2",
			"resource": {
				"resourceType": "Specimen",
				"id": "ca9126b3-7fb1-4b7d-92af-33673f69b7c2",
				"meta": {
					"profile": [
						"http://hl7.org/fhir/us/ph-library/StructureDefinition/us-ph-specimen"
					]
				},
				"text": {
					"status": "generated",
					"div": "<div xmlns=\"http://www.w3.org/1999/xhtml\">This is a simple narrative with only plain text</div>"
				},
				"identifier": [
					{
						"system": "http://acme.org/labs/ids",
						"value": "20220927-00124"
					}
				],
				"accessionIdentifier": {
					"system": "http://acme.org/labs/accession-ids",
					"value": "20220927-00124"
				},
				"type": {
					"coding": [
						{
							"system": "http://terminology.hl7.org/CodeSystem/v2-0487",
							"code": "SER",
							"display": "Serum"
						}
					]
				},
				"subject": {
					"reference": "Patient/f288c654-6885-4f48-999c-48d776dc06af"
				},
				"collection": {
					"collectedDateTime": "2022-09-27T18:07:12Z",
					"bodySite": {
						"coding": [
							{
								"system": "http://snomed.info/sct",
								"code": "1630006",
								"display": "Supraorbital vein"
							}
						]
					}
				}
			}
		},
		{
			"fullUrl": "http://example.org/fhir/Observation/673e0eb2-56bc-44c4-8f60-14b2b9ba0a88",
			"resource": {
				"resourceType": "Observation",
				"id": "673e0eb2-56bc-44c4-8f60-14b2b9ba0a88",
				"meta": {
					"profile": [
						"http://hl7.org/fhir/us/core/StructureDefinition/us-core-simple-observation"
					]
				},
				"text": {
					"status": "generated",
					"div": "<div xmlns=\"http://www.w3.org/1999/xhtml\">This is a simple narrative with only plain text</div>"
				},
				"status": "final",
				"category": [
					{
						"coding": [
							{
								"system": "http://terminology.hl7.org/CodeSystem/observation-category",
								"code": "social-history",
								"display": "Social History"
							}
						],
						"text": "Social History"
					}
				],
				"code": {
					"coding": [
						{
							"system": "http://loinc.org",
							"code": "11350-6",
							"display": "History of Sexual behavior Narrative"
						}
					],
					"text": "History of Sexual behavior Narrative"
				},
				"subject": {
					"reference": "Patient/f288c654-6885-4f48-999c-48d776dc06af"
				},
				"effectiveDateTime": "2000-04-01",
				"performer": [
					{
						"reference": "Practitioner/8085737b-28ec-4b23-8604-83fd20076933",
						"display": "Practitioner"
					}
				],
				"valueString": "2 partners in past 6 months"
			}
		},
		{
			"fullUrl": "http://example.org/fhir/Condition/804a1d9d-bef0-469a-af40-a0145503c3aa",
			"resource": {
				"resourceType": "Condition",
				"id": "804a1d9d-bef0-469a-af40-a0145503c3aa",
				"meta": {
					"profile": [
						"http://hl7.org/fhir/us/ph-library/StructureDefinition/us-ph-condition-encounter-diagnosis"
					]
				},
				"text": {
					"status": "generated",
					"div": "<div xmlns=\"http://www.w3.org/1999/xhtml\">This is a simple narrative with only plain text</div>"
				},
				"category": [
					{
						"coding": [
							{
								"system": "http://terminology.hl7.org/CodeSystem/condition-category",
								"code": "encounter-diagnosis",
								"display": "Encounter Diagnosis"
							}
						],
						"text": "Encounter Diagnosis"
					}
				],
				"code": {
					"coding": [
						{
							"system": "http://hl7.org/fhir/sid/icd-10-cm",
							"code": "A54.9",
							"display": "Gonococcal infection, unspecified"
						},
						{
							"system": "http://snomed.info/sct",
							"code": "15628003",
							"display": "Gonorrhea (disorder)"
						}
					],
					"text": "Gonorrhea infection"
				},
				"subject": {
					"reference": "Patient/f288c654-6885-4f48-999c-48d776dc06af",
					"type": "Patient"
				},
				"onsetDateTime": "2024-01-11T17:43:27.663+00:00"
			}
		},
		{
			"fullUrl": "http://example.org/fhir/MedicationRequest/546a8b86-6901-4ade-ace4-816566a1e620",
			"resource": {
				"resourceType": "MedicationRequest",
				"id": "546a8b86-6901-4ade-ace4-816566a1e620",
				"meta": {
					"profile": [
						"http://hl7.org/fhir/us/core/StructureDefinition/us-core-medicationrequest"
					]
				},
				"text": {
					"status": "generated",
					"div": "<div xmlns=\"http://www.w3.org/1999/xhtml\">This is a simple narrative with only plain text</div>"
				},
				"status": "active",
				"intent": "order",
				"medicationCodeableConcept": {
					"coding": [
						{
							"system": "http://www.nlm.nih.gov/research/umls/rxnorm",
							"code": "1665005",
							"display": "ceftriaxone 500 MG Injection"
						}
					],
					"text": "ceftriaxone 500 MG Injection"
				},
				"subject": {
					"reference": "Patient/f288c654-6885-4f48-999c-48d776dc06af"
				},
				"authoredOn": "2000-04-05",
				"requester": {
					"reference": "PractitionerRole/d0e6a570-9d65-40ca-884a-60f6dcc252cb"
				},
				"reasonCode": [
					{
						"coding": [
							{
								"system": "http://hl7.org/fhir/sid/icd-10-cm",
								"code": "A54.9",
								"display": "Gonococcal infection, unspecified"
							},
							{
								"system": "http://snomed.info/sct",
								"code": "15628003",
								"display": "Gonorrhea (disorder)"
							}
						],
						"text": "Gonorrhea infection"
					}
				],
				"reasonReference": [
					{
						"reference": "Condition/804a1d9d-bef0-469a-af40-a0145503c3aa"
					}
				],
				"dosageInstruction": [
					{
						"text": "Ceftriaxone 500 mg injection as a single dose"
					}
				]
			}
		},
		{
			"fullUrl": "http://example.org/fhir/DiagnosticReport/8dd016a4-5189-44b4-bdb5-786eadb9851a",
			"resource": {
				"resourceType": "DiagnosticReport",
				"id": "8dd016a4-5189-44b4-bdb5-786eadb9851a",
				"meta": {
					"profile": [
						"http://hl7.org/fhir/us/core/StructureDefinition/us-core-diagnosticreport-lab"
					]
				},
				"text": {
					"status": "generated",
					"div": "<div xmlns=\"http://www.w3.org/1999/xhtml\">This is a simple narrative with only plain text</div>"
				},
				"status": "final",
				"category": [
					{
						"coding": [
							{
								"system": "http://terminology.hl7.org/CodeSystem/v2-0074",
								"code": "LAB",
								"display": "Laboratory"
							}
						],
						"text": "Laboratory"
					}
				],
				"code": {
					"coding": [
						{
							"system": "http://loinc.org",
							"code": "72828-7",
							"display": "Chlamydia trachomatis and Neisseria gonorrhoeae DNA panel - Specimen"
						}
					],
					"text": "Chlamydia trachomatis and Neisseria gonorrhoeae DNA panel - Specimen"
				},
				"subject": {
					"reference": "Patient/f288c654-6885-4f48-999c-48d776dc06af"
				},
				"effectiveDateTime": "2000-04-04",
				"issued": "2000-04-04T00:00:00Z",
				"result": [
					{
						"reference": "Observation/6d22c4f2-1e19-42c7-8618-ed0f6b8e4f7b"
					},
					{
						"reference": "Observation/606c78ab-b778-4ad2-8db2-b2e205f15c41"
					}
				]
			}
		},
		{
			"fullUrl": "http://example.org/fhir/Observation/c43d2272-bb9a-4d61-8908-f000b77783de",
			"resource": {
				"resourceType": "Observation",
				"id": "c43d2272-bb9a-4d61-8908-f000b77783de",
				"meta": {
					"profile": [
						"http://hl7.org/fhir/us/ph-library/StructureDefinition/us-ph-lab-result-observation"
					]
				},
				"text": {
					"status": "generated",
					"div": "<div xmlns=\"http://www.w3.org/1999/xhtml\">This is a simple narrative with only plain text</div>"
				},
				"status": "final",
				"category": [
					{
						"coding": [
							{
								"system": "http://terminology.hl7.org/CodeSystem/observation-category",
								"code": "laboratory",
								"display": "Laboratory"
							}
						],
						"text": "Laboratory"
					}
				],
				"code": {
					"coding": [
						{
							"system": "http://loinc.org",
							"code": "21613-5",
							"display": "Chlamydia trachomatis DNA [Presence] in Specimen by NAA with probe detection"
						}
					],
					"text": "Chlamydia trachomatis DNA [Presence] in Specimen by NAA with probe detection"
				},
				"subject": {
					"reference": "Patient/f288c654-6885-4f48-999c-48d776dc06af"
				},
				"effectiveDateTime": "2000-01-04",
				"performer": [
					{
						"reference": "Practitioner/8085737b-28ec-4b23-8604-83fd20076933",
						"display": "Practitioner"
					}
				],
				"valueCodeableConcept": {
					"coding": [
						{
							"system": "http://snomed.info/sct",
							"code": "260373001",
							"display": "Detected"
						}
					],
					"text": "Detected"
				},
				"interpretation": [
					{
						"coding": [
							{
								"system": "http://terminology.hl7.org/CodeSystem/v3-ObservationInterpretation",
								"code": "DET",
								"display": "Detected"
							}
						],
						"text": "Detected"
					}
				]
			}
		},
		{
			"fullUrl": "http://example.org/fhir/Observation/622b609a-bbae-4191-b9c2-2bae98902c73",
			"resource": {
				"resourceType": "Observation",
				"id": "622b609a-bbae-4191-b9c2-2bae98902c73",
				"meta": {
					"profile": [
						"http://hl7.org/fhir/us/core/StructureDefinition/us-core-simple-observation"
					]
				},
				"text": {
					"status": "generated",
					"div": "<div xmlns=\"http://www.w3.org/1999/xhtml\">This is a simple narrative with only plain text</div>"
				},
				"status": "final",
				"category": [
					{
						"coding": [
							{
								"system": "http://terminology.hl7.org/CodeSystem/observation-category",
								"code": "social-history",
								"display": "Social History"
							}
						],
						"text": "Social History"
					}
				],
				"code": {
					"coding": [
						{
							"system": "http://loinc.org",
							"code": "11350-6",
							"display": "History of Sexual behavior Narrative"
						}
					],
					"text": "History of Sexual behavior Narrative"
				},
				"subject": {
					"reference": "Patient/f288c654-6885-4f48-999c-48d776dc06af"
				},
				"effectiveDateTime": "2000-01-01",
				"performer": [
					{
						"reference": "Practitioner/8085737b-28ec-4b23-8604-83fd20076933",
						"display": "Practitioner"
					}
				],
				"valueString": "10 partners in past 6 months"
			}
		},
		{
			"fullUrl": "http://example.org/fhir/Condition/547054c8-cbf0-4110-916b-6ccfd1345ff0",
			"resource": {
				"resourceType": "Condition",
				"id": "547054c8-cbf0-4110-916b-6ccfd1345ff0",
				"meta": {
					"profile": [
						"http://hl7.org/fhir/us/ph-library/StructureDefinition/us-ph-condition-encounter-diagnosis"
					]
				},
				"text": {
					"status": "generated",
					"div": "<div xmlns=\"http://www.w3.org/1999/xhtml\">This is a simple narrative with only plain text</div>"
				},
				"category": [
					{
						"coding": [
							{
								"system": "http://terminology.hl7.org/CodeSystem/condition-category",
								"code": "encounter-diagnosis",
								"display": "Encounter Diagnosis"
							}
						],
						"text": "Encounter Diagnosis"
					}
				],
				"code": {
					"coding": [
						{
							"system": "http://hl7.org/fhir/sid/icd-10-cm",
							"code": "A54.9",
							"display": "Gonococcal infection, unspecified"
						},
						{
							"system": "http://snomed.info/sct",
							"code": "15628003",
							"display": "Gonorrhea (disorder)"
						}
					],
					"text": "Gonorrhea infection"
				},
				"subject": {
					"reference": "Patient/f288c654-6885-4f48-999c-48d776dc06af",
					"type": "Patient"
				},
				"onsetDateTime": "2024-01-11T17:43:27.663+00:00"
			}
		},
		{
			"fullUrl": "http://example.org/fhir/Condition/6bbcfd78-deb7-4715-9dfc-68e1f0918ad2",
			"resource": {
				"resourceType": "Condition",
				"id": "6bbcfd78-deb7-4715-9dfc-68e1f0918ad2",
				"meta": {
					"profile": [
						"http://hl7.org/fhir/us/ph-library/StructureDefinition/us-ph-condition-encounter-diagnosis"
					]
				},
				"text": {
					"status": "generated",
					"div": "<div xmlns=\"http://www.w3.org/1999/xhtml\">This is a simple narrative with only plain text</div>"
				},
				"category": [
					{
						"coding": [
							{
								"system": "http://terminology.hl7.org/CodeSystem/condition-category",
								"code": "encounter-diagnosis",
								"display": "Encounter Diagnosis"
							}
						],
						"text": "Encounter Diagnosis"
					}
				],
				"code": {
					"coding": [
						{
							"system": "http://hl7.org/fhir/sid/icd-10-cm",
							"code": "A74.9",
							"display": "Chlamydial infection, unspecified"
						},
						{
							"system": "http://snomed.info/sct",
							"code": "105629000",
							"display": "Chlamydial infection (disorder)"
						}
					],
					"text": "Chlamydial infection"
				},
				"subject": {
					"reference": "Patient/f288c654-6885-4f48-999c-48d776dc06af",
					"type": "Patient"
				},
				"onsetDateTime": "2023-05-17T17:43:27.663+00:00"
			}
		},
		{
			"fullUrl": "http://example.org/fhir/MedicationRequest/41e37368-1036-4abb-adf7-f7157cfa5a0f",
			"resource": {
				"resourceType": "MedicationRequest",
				"id": "41e37368-1036-4abb-adf7-f7157cfa5a0f",
				"meta": {
					"profile": [
						"http://hl7.org/fhir/us/core/StructureDefinition/us-core-medicationrequest"
					]
				},
				"text": {
					"status": "generated",
					"div": "<div xmlns=\"http://www.w3.org/1999/xhtml\">This is a simple narrative with only plain text</div>"
				},
				"status": "active",
				"intent": "order",
				"medicationCodeableConcept": {
					"coding": [
						{
							"system": "http://www.nlm.nih.gov/research/umls/rxnorm",
							"code": "1649987",
							"display": "doxycycline hyclate 100 MG"
						}
					],
					"text": "doxycycline hyclate 100 MG"
				},
				"subject": {
					"reference": "Patient/f288c654-6885-4f48-999c-48d776dc06af"
				},
				"authoredOn": "2000-01-05",
				"requester": {
					"reference": "Practitioner/8085737b-28ec-4b23-8604-83fd20076933"
				},
				"reasonCode": [
					{
						"coding": [
							{
								"system": "http://hl7.org/fhir/sid/icd-10-cm",
								"code": "A74.9",
								"display": "Chlamydial infection, unspecified"
							},
							{
								"system": "http://snomed.info/sct",
								"code": "105629000",
								"display": "Chlamydial infection (disorder)"
							}
						],
						"text": "Chlamydial infection"
					}
				],
				"dosageInstruction": [
					{
						"text": "Doxycycline 100 mg orally 2 times/day for 7 days"
					}
				]
			}
		},
		{
			"fullUrl": "http://example.org/fhir/MedicationRequest/d2d609fe-aef2-403d-9614-a6d2bc823a03",
			"resource": {
				"resourceType": "MedicationRequest",
				"id": "d2d609fe-aef2-403d-9614-a6d2bc823a03",
				"meta": {
					"profile": [
						"http://hl7.org/fhir/us/core/StructureDefinition/us-core-medicationrequest"
					]
				},
				"text": {
					"status": "generated",
					"div": "<div xmlns=\"http://www.w3.org/1999/xhtml\">This is a simple narrative with only plain text</div>"
				},
				"status": "active",
				"intent": "order",
				"medicationCodeableConcept": {
					"coding": [
						{
							"system": "http://www.nlm.nih.gov/research/umls/rxnorm",
							"code": "1665005",
							"display": "ceftriaxone 500 MG Injection"
						}
					],
					"text": "ceftriaxone 500 MG Injection"
				},
				"subject": {
					"reference": "Patient/f288c654-6885-4f48-999c-48d776dc06af"
				},
				"authoredOn": "2000-01-05",
				"requester": {
					"reference": "Practitioner/8085737b-28ec-4b23-8604-83fd20076933"
				},
				"reasonCode": [
					{
						"coding": [
							{
								"system": "http://hl7.org/fhir/sid/icd-10-cm",
								"code": "A54.9",
								"display": "Gonococcal infection, unspecified"
							},
							{
								"system": "http://snomed.info/sct",
								"code": "15628003",
								"display": "Gonorrhea (disorder)"
							}
						],
						"text": "Gonorrhea infection"
					}
				],
				"dosageInstruction": [
					{
						"text": "Ceftriaxone 500 mg injection as a single dose"
					}
				]
			}
		},
		{
			"fullUrl": "http://example.org/fhir/DiagnosticReport/55066176-b4a0-485c-b68e-b31f3e28a442",
			"resource": {
				"resourceType": "DiagnosticReport",
				"id": "55066176-b4a0-485c-b68e-b31f3e28a442",
				"meta": {
					"profile": [
						"http://hl7.org/fhir/us/core/StructureDefinition/us-core-diagnosticreport-lab"
					]
				},
				"text": {
					"status": "generated",
					"div": "<div xmlns=\"http://www.w3.org/1999/xhtml\">This is a simple narrative with only plain text</div>"
				},
				"status": "final",
				"category": [
					{
						"coding": [
							{
								"system": "http://terminology.hl7.org/CodeSystem/v2-0074",
								"code": "LAB",
								"display": "Laboratory"
							}
						],
						"text": "Laboratory"
					}
				],
				"code": {
					"coding": [
						{
							"system": "http://loinc.org",
							"code": "72828-7",
							"display": "Chlamydia trachomatis and Neisseria gonorrhoeae DNA panel - Specimen"
						}
					],
					"text": "Chlamydia trachomatis and Neisseria gonorrhoeae DNA panel - Specimen"
				},
				"subject": {
					"reference": "Patient/f288c654-6885-4f48-999c-48d776dc06af"
				},
				"effectiveDateTime": "2000-01-04",
				"issued": "2000-01-04T00:00:00Z"
			}
		},
		{
			"fullUrl": "http://example.org/fhir/Observation/16cd022c-ce74-47dc-96a5-62afeb62a238",
			"resource": {
				"resourceType": "Observation",
				"id": "16cd022c-ce74-47dc-96a5-62afeb62a238",
				"meta": {
					"profile": [
						"http://hl7.org/fhir/us/ph-library/StructureDefinition/us-ph-lab-result-observation"
					]
				},
				"text": {
					"status": "generated",
					"div": "<div xmlns=\"http://www.w3.org/1999/xhtml\">This is a simple narrative with only plain text</div>"
				},
				"status": "final",
				"category": [
					{
						"coding": [
							{
								"system": "http://terminology.hl7.org/CodeSystem/observation-category",
								"code": "laboratory",
								"display": "Laboratory"
							}
						],
						"text": "Laboratory"
					}
				],
				"code": {
					"coding": [
						{
							"system": "http://loinc.org",
							"code": "21613-5",
							"display": "Chlamydia trachomatis DNA [Presence] in Specimen by NAA with probe detection"
						}
					],
					"text": "Chlamydia trachomatis DNA [Presence] in Specimen by NAA with probe detection"
				},
				"subject": {
					"reference": "Patient/f288c654-6885-4f48-999c-48d776dc06af"
				},
				"effectiveDateTime": "2022-11-30",
				"performer": [
					{
						"reference": "Practitioner/8085737b-28ec-4b23-8604-83fd20076933",
						"display": "Practitioner"
					}
				],
				"valueCodeableConcept": {
					"coding": [
						{
							"system": "http://snomed.info/sct",
							"code": "260373001",
							"display": "Detected"
						}
					],
					"text": "Detected"
				},
				"interpretation": [
					{
						"coding": [
							{
								"system": "http://terminology.hl7.org/CodeSystem/v3-ObservationInterpretation",
								"code": "DET",
								"display": "Detected"
							}
						],
						"text": "Detected"
					}
				]
			}
		},
		{
			"fullUrl": "http://example.org/fhir/Observation/317a32d1-16ef-479d-8ba5-eec53da3b549",
			"resource": {
				"resourceType": "Observation",
				"id": "317a32d1-16ef-479d-8ba5-eec53da3b549",
				"meta": {
					"profile": [
						"http://hl7.org/fhir/us/ph-library/StructureDefinition/us-ph-lab-result-observation"
					]
				},
				"text": {
					"status": "generated",
					"div": "<div xmlns=\"http://www.w3.org/1999/xhtml\">This is a simple narrative with only plain text</div>"
				},
				"status": "final",
				"category": [
					{
						"coding": [
							{
								"system": "http://terminology.hl7.org/CodeSystem/observation-category",
								"code": "laboratory",
								"display": "Laboratory"
							}
						],
						"text": "Laboratory"
					}
				],
				"code": {
					"coding": [
						{
							"system": "http://loinc.org",
							"code": "24111-7",
							"display": "Neisseria gonorrhoeae DNA [Presence] in Specimen by NAA with probe detection"
						}
					],
					"text": "Neisseria gonorrhoeae DNA [Presence] in Specimen by NAA with probe detection"
				},
				"subject": {
					"reference": "Patient/f288c654-6885-4f48-999c-48d776dc06af"
				},
				"effectiveDateTime": "2022-11-30",
				"performer": [
					{
						"reference": "Practitioner/8085737b-28ec-4b23-8604-83fd20076933",
						"display": "Practitioner"
					}
				],
				"valueCodeableConcept": {
					"coding": [
						{
							"system": "http://snomed.info/sct",
							"code": "260373001",
							"display": "Detected"
						}
					],
					"text": "Detected"
				},
				"interpretation": [
					{
						"coding": [
							{
								"system": "http://terminology.hl7.org/CodeSystem/v3-ObservationInterpretation",
								"code": "DET",
								"display": "Detected"
							}
						],
						"text": "Detected"
					}
				]
			}
		},
		{
			"fullUrl": "http://example.org/fhir/Observation/c1d41419-8d6b-4041-8ff9-d65bb08c270f",
			"resource": {
				"resourceType": "Observation",
				"id": "c1d41419-8d6b-4041-8ff9-d65bb08c270f",
				"meta": {
					"profile": [
						"http://hl7.org/fhir/us/core/StructureDefinition/us-core-simple-observation"
					]
				},
				"text": {
					"status": "generated",
					"div": "<div xmlns=\"http://www.w3.org/1999/xhtml\">This is a simple narrative with only plain text</div>"
				},
				"status": "final",
				"category": [
					{
						"coding": [
							{
								"system": "http://terminology.hl7.org/CodeSystem/observation-category",
								"code": "social-history",
								"display": "Social History"
							}
						],
						"text": "Social History"
					}
				],
				"code": {
					"coding": [
						{
							"system": "http://loinc.org",
							"code": "82810-3",
							"display": "Pregnancy status"
						}
					],
					"text": "Pregnancy status"
				},
				"subject": {
					"reference": "Patient/f288c654-6885-4f48-999c-48d776dc06af"
				},
				"effectiveDateTime": "2022-11-21",
				"performer": [
					{
						"reference": "Practitioner/8085737b-28ec-4b23-8604-83fd20076933",
						"display": "Practitioner"
					}
				],
				"valueCodeableConcept": {
					"coding": [
						{
							"system": "http://snomed.info/sct",
							"code": "102874004",
							"display": "Possible pregnancy"
						}
					],
					"text": "Possible pregnancy"
				}
			}
		},
		{
			"fullUrl": "http://example.org/fhir/Observation/baf8e26b-5d3b-478d-b72b-ed3d54cdfc69",
			"resource": {
				"resourceType": "Observation",
				"id": "baf8e26b-5d3b-478d-b72b-ed3d54cdfc69",
				"meta": {
					"profile": [
						"http://hl7.org/fhir/us/core/StructureDefinition/us-core-simple-observation"
					]
				},
				"text": {
					"status": "generated",
					"div": "<div xmlns=\"http://www.w3.org/1999/xhtml\">This is a simple narrative with only plain text</div>"
				},
				"status": "final",
				"category": [
					{
						"coding": [
							{
								"system": "http://terminology.hl7.org/CodeSystem/observation-category",
								"code": "social-history",
								"display": "Social History"
							}
						],
						"text": "Social History"
					}
				],
				"code": {
					"coding": [
						{
							"system": "http://loinc.org",
							"code": "83317-8",
							"display": "Sexual activity with anonymous partner in the past year"
						}
					],
					"text": "Sexual activity with anonymous partner in the past year"
				},
				"subject": {
					"reference": "Patient/f288c654-6885-4f48-999c-48d776dc06af"
				},
				"effectiveDateTime": "2022-11-21",
				"performer": [
					{
						"reference": "Practitioner/8085737b-28ec-4b23-8604-83fd20076933",
						"display": "Practitioner"
					}
				],
				"valueCodeableConcept": {
					"coding": [
						{
							"system": "http://snomed.info/sct",
							"code": "373066001",
							"display": "Yes"
						}
					],
					"text": "Yes"
				}
			}
		},
		{
			"fullUrl": "http://example.org/fhir/Condition/5c52f9aa-82e9-4f13-be73-ee4c9539f785",
			"resource": {
				"resourceType": "Condition",
				"id": "5c52f9aa-82e9-4f13-be73-ee4c9539f785",
				"meta": {
					"profile": [
						"http://hl7.org/fhir/us/ph-library/StructureDefinition/us-ph-condition-encounter-diagnosis"
					]
				},
				"text": {
					"status": "generated",
					"div": "<div xmlns=\"http://www.w3.org/1999/xhtml\">This is a simple narrative with only plain text</div>"
				},
				"category": [
					{
						"coding": [
							{
								"system": "http://terminology.hl7.org/CodeSystem/condition-category",
								"code": "encounter-diagnosis",
								"display": "Encounter Diagnosis"
							}
						],
						"text": "Encounter Diagnosis"
					}
				],
				"code": {
					"coding": [
						{
							"system": "http://hl7.org/fhir/sid/icd-10-cm",
							"code": "A54.9",
							"display": "Gonococcal infection, unspecified"
						},
						{
							"system": "http://snomed.info/sct",
							"code": "15628003",
							"display": "Gonorrhea (disorder)"
						}
					],
					"text": "Gonorrhea infection"
				},
				"subject": {
					"reference": "Patient/f288c654-6885-4f48-999c-48d776dc06af",
					"type": "Patient"
				},
				"onsetDateTime": "2021-02-19T17:43:27.663+00:00"
			}
		},
		{
			"fullUrl": "http://example.org/fhir/Condition/6e4f3cd1-099d-4684-903e-70bf4bcaa4a1",
			"resource": {
				"resourceType": "Condition",
				"id": "6e4f3cd1-099d-4684-903e-70bf4bcaa4a1",
				"meta": {
					"profile": [
						"http://hl7.org/fhir/us/ph-library/StructureDefinition/us-ph-condition-encounter-diagnosis"
					]
				},
				"text": {
					"status": "generated",
					"div": "<div xmlns=\"http://www.w3.org/1999/xhtml\">This is a simple narrative with only plain text</div>"
				},
				"category": [
					{
						"coding": [
							{
								"system": "http://terminology.hl7.org/CodeSystem/condition-category",
								"code": "encounter-diagnosis",
								"display": "Encounter Diagnosis"
							}
						],
						"text": "Encounter Diagnosis"
					}
				],
				"code": {
					"coding": [
						{
							"system": "http://hl7.org/fhir/sid/icd-10-cm",
							"code": "A74.9",
							"display": "Chlamydial infection, unspecified"
						},
						{
							"system": "http://snomed.info/sct",
							"code": "105629000",
							"display": "Chlamydial infection (disorder)"
						}
					],
					"text": "Chlamydia infection"
				},
				"subject": {
					"reference": "Patient/f288c654-6885-4f48-999c-48d776dc06af",
					"type": "Patient"
				},
				"onsetDateTime": "2022-09-11T17:43:27.663+00:00"
			}
		},
		{
			"fullUrl": "http://example.org/fhir/Encounter/7f613cae-d0e6-4e06-9026-4b4fef8273b6",
			"resource": {
				"resourceType": "Encounter",
				"id": "7f613cae-d0e6-4e06-9026-4b4fef8273b6",
				"meta": {
					"profile": [
						"http://hl7.org/fhir/us/core/StructureDefinition/us-core-encounter"
					]
				},
				"text": {
					"status": "generated",
					"div": "<div xmlns=\"http://www.w3.org/1999/xhtml\">This is a simple narrative with only plain text</div>"
				},
				"status": "in-progress",
				"class": {
					"system": "http://terminology.hl7.org/CodeSystem/service-type",
					"code": "54",
					"display": "Family Planning"
				},
				"type": [
					{
						"coding": [
							{
								"system": "http://www.ama-assn.org/go/cpt",
								"code": "99202"
							}
						],
						"text": "Office Visit"
					}
				],
				"subject": {
					"reference": "Patient/f288c654-6885-4f48-999c-48d776dc06af"
				},
				"participant": [
					{
						"period": {
							"start": "2022-11-21",
							"end": "2022-12-15"
						},
						"individual": {
							"reference": "Practitioner/8085737b-28ec-4b23-8604-83fd20076933",
							"type": "Practitioner"
						}
					}
				],
				"period": {
					"start": "2022-11-21",
					"end": "2022-12-15"
				},
				"reasonCode": [
					{
						"coding": [
							{
								"system": "http://snomed.info/sct",
								"code": "72531000052105",
								"display": "Counseling for contraception (procedure)"
							}
						],
						"text": "Counseling for contraception (procedure)"
					}
				],
				"location": [
					{
						"location": {
							"reference": "Location/d1636409-8269-4758-9130-20daf48d02f6",
							"display": "Clinic Bldg A, Salem Medical Center, 4444 Healthcare Drive, Ann Arbor MI, 99999"
						}
					},
					{
						"location": {
							"reference": "Location/d1636409-8269-4758-9130-20daf48d02f6",
							"display": "Clinic Bldg A, Salem Medical Center, 4444 Healthcare Drive, Ann Arbor MI, 99999"
						}
					}
				]
			}
		},
		{
			"fullUrl": "http://example.org/fhir/MedicationRequest/c911589d-683f-49a8-97d3-f231033a97df",
			"resource": {
				"resourceType": "MedicationRequest",
				"id": "c911589d-683f-49a8-97d3-f231033a97df",
				"meta": {
					"profile": [
						"http://hl7.org/fhir/us/core/StructureDefinition/us-core-medicationrequest"
					]
				},
				"text": {
					"status": "generated",
					"div": "<div xmlns=\"http://www.w3.org/1999/xhtml\">This is a simple narrative with only plain text</div>"
				},
				"status": "active",
				"intent": "order",
				"medicationCodeableConcept": {
					"coding": [
						{
							"system": "http://www.nlm.nih.gov/research/umls/rxnorm",
							"code": "1665005",
							"display": "ceftriaxone 500 MG Injection"
						}
					],
					"text": "ceftriaxone 500 MG Injection"
				},
				"subject": {
					"reference": "Patient/f288c654-6885-4f48-999c-48d776dc06af"
				},
				"authoredOn": "2022-12-01",
				"requester": {
					"reference": "PractitionerRole/d0e6a570-9d65-40ca-884a-60f6dcc252cb"
				},
				"reasonCode": [
					{
						"coding": [
							{
								"system": "http://hl7.org/fhir/sid/icd-10-cm",
								"code": "A54.9",
								"display": "Gonococcal infection, unspecified"
							},
							{
								"system": "http://snomed.info/sct",
								"code": "15628003",
								"display": "Gonorrhea (disorder)"
							}
						],
						"text": "Gonorrhea infection"
					}
				],
				"reasonReference": [
					{
						"reference": "Condition/5c52f9aa-82e9-4f13-be73-ee4c9539f785"
					}
				],
				"dosageInstruction": [
					{
						"text": "Ceftriaxone 500 mg injection as a single dose"
					}
				]
			}
		},
		{
			"fullUrl": "http://example.org/fhir/MedicationRequest/43f7e264-161a-4e8a-9cef-aea6d6f7bfb7",
			"resource": {
				"resourceType": "MedicationRequest",
				"id": "43f7e264-161a-4e8a-9cef-aea6d6f7bfb7",
				"meta": {
					"profile": [
						"http://hl7.org/fhir/us/core/StructureDefinition/us-core-medicationrequest"
					]
				},
				"text": {
					"status": "generated",
					"div": "<div xmlns=\"http://www.w3.org/1999/xhtml\">This is a simple narrative with only plain text</div>"
				},
				"status": "active",
				"intent": "order",
				"medicationCodeableConcept": {
					"coding": [
						{
							"system": "http://www.nlm.nih.gov/research/umls/rxnorm",
							"code": "434692",
							"display": "azithromycin 1000 MG"
						}
					],
					"text": "azithromycin 1000 MG"
				},
				"subject": {
					"reference": "Patient/f288c654-6885-4f48-999c-48d776dc06af"
				},
				"authoredOn": "2022-12-01",
				"requester": {
					"reference": "PractitionerRole/d0e6a570-9d65-40ca-884a-60f6dcc252cb"
				},
				"reasonCode": [
					{
						"coding": [
							{
								"system": "http://hl7.org/fhir/sid/icd-10-cm",
								"code": "A74.9",
								"display": "Chlamydial infection, unspecified"
							},
							{
								"system": "http://snomed.info/sct",
								"code": "105629000",
								"display": "Chlamydial infection (disorder)"
							}
						],
						"text": "Chlamydia infection"
					}
				],
				"reasonReference": [
					{
						"reference": "Condition/6e4f3cd1-099d-4684-903e-70bf4bcaa4a1"
					}
				],
				"dosageInstruction": [
					{
						"text": "1 gram azithromycin as a single oral dose"
					}
				]
			}
		},
		{
			"fullUrl": "http://example.org/fhir/DiagnosticReport/7ea6d8c0-b493-4208-8e07-30432aa34ee3",
			"resource": {
				"resourceType": "DiagnosticReport",
				"id": "7ea6d8c0-b493-4208-8e07-30432aa34ee3",
				"meta": {
					"profile": [
						"http://hl7.org/fhir/us/core/StructureDefinition/us-core-diagnosticreport-lab"
					]
				},
				"text": {
					"status": "generated",
					"div": "<div xmlns=\"http://www.w3.org/1999/xhtml\">This is a simple narrative with only plain text</div>"
				},
				"status": "final",
				"category": [
					{
						"coding": [
							{
								"system": "http://terminology.hl7.org/CodeSystem/v2-0074",
								"code": "LAB",
								"display": "Laboratory"
							}
						],
						"text": "Laboratory"
					}
				],
				"code": {
					"coding": [
						{
							"system": "http://loinc.org",
							"code": "72828-7",
							"display": "Chlamydia trachomatis and Neisseria gonorrhoeae DNA panel - Specimen"
						}
					],
					"text": "Chlamydia trachomatis and Neisseria gonorrhoeae DNA panel - Specimen"
				},
				"subject": {
					"reference": "Patient/f288c654-6885-4f48-999c-48d776dc06af"
				},
				"effectiveDateTime": "2022-11-30",
				"issued": "2023-10-15T14:30:15.000+00:00",
				"result": [
					{
						"reference": "Observation/16cd022c-ce74-47dc-96a5-62afeb62a238"
					},
					{
						"reference": "Observation/317a32d1-16ef-479d-8ba5-eec53da3b549"
					}
				]
			}
		},
		{
			"fullUrl": "http://example.org/fhir/MedicationRequest/d3c8fbcd-8212-437e-bafd-7cb946770c3f",
			"resource": {
				"resourceType": "MedicationRequest",
				"id": "d3c8fbcd-8212-437e-bafd-7cb946770c3f",
				"meta": {
					"profile": [
						"http://hl7.org/fhir/us/core/StructureDefinition/us-core-medicationrequest"
					]
				},
				"text": {
					"status": "generated",
					"div": "<div xmlns=\"http://www.w3.org/1999/xhtml\">This is a simple narrative with only plain text</div>"
				},
				"status": "active",
				"intent": "order",
				"medicationCodeableConcept": {
					"coding": [
						{
							"system": "http://www.nlm.nih.gov/research/umls/rxnorm",
							"code": "749880",
							"display": "{21 (ethinyl estradiol 0.035 MG / norethindrone 0.5 MG Oral Tablet) / 7 (inert ingredients 1 MG Oral Tablet) } Pack [Brevicon 28 Day]"
						}
					],
					"text": "{21 (ethinyl estradiol 0.035 MG / norethindrone 0.5 MG Oral Tablet) / 7 (inert ingredients 1 MG Oral Tablet) } Pack [Brevicon 28 Day]"
				},
				"subject": {
					"reference": "Patient/f288c654-6885-4f48-999c-48d776dc06af"
				},
				"authoredOn": "2022-11-21",
				"requester": {
					"reference": "PractitionerRole/d0e6a570-9d65-40ca-884a-60f6dcc252cb"
				},
				"reasonCode": [
					{
						"coding": [
							{
								"system": "http://hl7.org/fhir/sid/icd-10-cm",
								"code": "Z30.01",
								"display": "Encounter for initial prescription of contraceptives"
							}
						],
						"text": "Encounter for initial prescription of contraceptives"
					}
				],
				"dosageInstruction": [
					{
						"text": "Daily"
					}
				]
			}
		},
		{
			"fullUrl": "http://example.org/fhir/Observation/d6bd9aa8-5d83-437e-9ce5-8021e50bc583",
			"resource": {
				"resourceType": "Observation",
				"id": "d6bd9aa8-5d83-437e-9ce5-8021e50bc583",
				"meta": {
					"profile": [
						"http://hl7.org/fhir/us/core/StructureDefinition/us-core-observation-screening-assessment"
					]
				},
				"text": {
					"status": "generated",
					"div": "<div xmlns=\"http://www.w3.org/1999/xhtml\">This is a simple narrative with only plain text</div>"
				},
				"status": "final",
				"category": [
					{
						"coding": [
							{
								"system": "http://hl7.org/fhir/us/core/CodeSystem/us-core-category",
								"code": "functional-status",
								"display": "Functional Status"
							}
						]
					},
					{
						"coding": [
							{
								"system": "http://terminology.hl7.org/CodeSystem/observation-category",
								"code": "survey",
								"display": "Survey"
							}
						]
					}
				],
				"code": {
					"coding": [
						{
							"system": "http://loinc.org",
							"code": "54109-4",
							"display": "Newborn hearing screen of Ear - right"
						}
					],
					"text": "Newborn hearing screen of Ear - right"
				},
				"subject": {
					"reference": "Patient/f288c654-6885-4f48-999c-48d776dc06af"
				},
				"effectiveDateTime": "2024-07-12T00:00:00Z",
				"performer": [
					{
						"reference": "Practitioner/8085737b-28ec-4b23-8604-83fd20076933",
						"display": "Practitioner"
					}
				],
				"valueCodeableConcept": {
					"coding": [
						{
							"system": "http://snomed.info/sct",
							"code": "262008008",
							"display": "Not Performed"
						}
					],
					"text": "Not Performed"
				}
			}
		},
		{
			"fullUrl": "http://example.org/fhir/Observation/2c2ff367-d8c6-4e4b-9731-e72702d7bbaa",
			"resource": {
				"resourceType": "Observation",
				"id": "2c2ff367-d8c6-4e4b-9731-e72702d7bbaa",
				"meta": {
					"profile": [
						"http://hl7.org/fhir/us/core/StructureDefinition/us-core-vital-signs"
					]
				},
				"text": {
					"status": "generated",
					"div": "<div xmlns=\"http://www.w3.org/1999/xhtml\">This is a simple narrative with only plain text</div>"
				},
				"status": "final",
				"category": [
					{
						"coding": [
							{
								"system": "http://terminology.hl7.org/CodeSystem/observation-category",
								"code": "vital-signs",
								"display": "Vital Signs"
							}
						],
						"text": "Vital Signs"
					}
				],
				"code": {
					"coding": [
						{
							"system": "http://loinc.org",
							"code": "8336-0",
							"display": "Body weight [Percentile] Per age"
						}
					],
					"text": "Body weight [Percentile] Per age"
				},
				"subject": {
					"reference": "Patient/f288c654-6885-4f48-999c-48d776dc06af"
				},
				"effectiveDateTime": "2024-07-12T00:00:00Z",
				"performer": [
					{
						"reference": "Practitioner/8085737b-28ec-4b23-8604-83fd20076933",
						"display": "Practitioner"
					}
				],
				"valueQuantity": {
					"value": 80.05,
					"unit": "percent",
					"system": "http://unitsofmeasure.org",
					"code": "%"
				}
			}
		},
		{
			"fullUrl": "http://example.org/fhir/Observation/c7456bfa-e03d-49cf-a727-ac3e87aa4af9",
			"resource": {
				"resourceType": "Observation",
				"id": "c7456bfa-e03d-49cf-a727-ac3e87aa4af9",
				"meta": {
					"profile": [
						"http://hl7.org/fhir/us/core/StructureDefinition/us-core-observation-screening-assessment"
					]
				},
				"text": {
					"status": "generated",
					"div": "<div xmlns=\"http://www.w3.org/1999/xhtml\">This is a simple narrative with only plain text</div>"
				},
				"status": "final",
				"category": [
					{
						"coding": [
							{
								"system": "http://hl7.org/fhir/us/core/CodeSystem/us-core-category",
								"code": "functional-status",
								"display": "Functional Status"
							}
						]
					},
					{
						"coding": [
							{
								"system": "http://terminology.hl7.org/CodeSystem/observation-category",
								"code": "survey",
								"display": "Survey"
							}
						]
					}
				],
				"code": {
					"coding": [
						{
							"system": "http://loinc.org",
							"code": "54108-6",
							"display": "Newborn hearing screen of Ear - left"
						}
					],
					"text": "Newborn hearing screen of Ear - left"
				},
				"subject": {
					"reference": "Patient/f288c654-6885-4f48-999c-48d776dc06af"
				},
				"effectiveDateTime": "2024-07-12T00:00:00Z",
				"performer": [
					{
						"reference": "Practitioner/8085737b-28ec-4b23-8604-83fd20076933",
						"display": "Practitioner"
					}
				],
				"valueCodeableConcept": {
					"coding": [
						{
							"system": "http://snomed.info/sct",
							"code": "262008008",
							"display": "Not Performed"
						}
					],
					"text": "Not Performed"
				}
			}
		},
		{
			"fullUrl": "http://example.org/fhir/Observation/1804b5d6-9fae-4cb6-b230-2312f15f787b",
			"resource": {
				"resourceType": "Observation",
				"id": "1804b5d6-9fae-4cb6-b230-2312f15f787b",
				"meta": {
					"profile": [
						"http://hl7.org/fhir/us/core/StructureDefinition/us-core-vital-signs"
					]
				},
				"text": {
					"status": "generated",
					"div": "<div xmlns=\"http://www.w3.org/1999/xhtml\">This is a simple narrative with only plain text</div>"
				},
				"status": "final",
				"category": [
					{
						"coding": [
							{
								"system": "http://terminology.hl7.org/CodeSystem/observation-category",
								"code": "vital-signs",
								"display": "Vital Signs"
							}
						],
						"text": "Vital Signs"
					}
				],
				"code": {
					"coding": [
						{
							"system": "http://loinc.org",
							"code": "2708-6",
							"display": "Oxygen saturation in Arterial blood"
						}
					],
					"text": "Oxygen saturation in Arterial blood"
				},
				"subject": {
					"reference": "Patient/f288c654-6885-4f48-999c-48d776dc06af"
				},
				"effectiveDateTime": "2024-07-12T00:00:00Z",
				"performer": [
					{
						"reference": "Practitioner/8085737b-28ec-4b23-8604-83fd20076933",
						"display": "Practitioner"
					}
				],
				"valueQuantity": {
					"value": 99,
					"unit": "percent",
					"system": "http://unitsofmeasure.org",
					"code": "%"
				}
			}
		},
		{
			"fullUrl": "http://example.org/fhir/Observation/1804b5d6-9fae-4cb6-b230-2312f15f787a",
			"resource": {
				"resourceType": "Observation",
				"id": "1804b5d6-9fae-4cb6-b230-2312f15f787a",
				"meta": {
					"profile": [
						"http://hl7.org/fhir/us/core/StructureDefinition/us-core-simple-observation"
					]
				},
				"text": {
					"status": "generated",
					"div": "<div xmlns=\"http://www.w3.org/1999/xhtml\">This is a simple narrative with only plain text</div>"
				},
				"status": "final",
				"category": [
					{
						"coding": [
							{
								"system": "http://terminology.hl7.org/CodeSystem/observation-category",
								"code": "exam",
								"display": "Exam"
							}
						]
					}
				],
				"code": {
					"coding": [
						{
							"system": "http://loinc.org",
							"code": "57713-0",
							"display": "Infant factors that affect newborn screening interpretation"
						}
					],
					"text": "Infant factors that affect newborn screening interpretation"
				},
				"subject": {
					"reference": "Patient/f288c654-6885-4f48-999c-48d776dc06af"
				},
				"effectiveDateTime": "2024-07-12T00:00:00Z",
				"performer": [
					{
						"reference": "Practitioner/8085737b-28ec-4b23-8604-83fd20076933",
						"display": "Practitioner"
					}
				],
				"valueCodeableConcept": {
					"coding": [
						{
							"system": "http://loinc.org",
							"code": "LA12419-0",
							"display": "Infant in NICU at time of specimen collection"
						}
					],
					"text": "Infant in NICU at time of specimen collection"
				}
			}
		},
		{
			"fullUrl": "http://example.org/fhir/Observation/075d8b9d-3ed0-4e33-84fc-64729e312950",
			"resource": {
				"resourceType": "Observation",
				"id": "075d8b9d-3ed0-4e33-84fc-64729e312950",
				"meta": {
					"profile": [
						"http://hl7.org/fhir/us/core/StructureDefinition/us-core-observation-screening-assessment"
					]
				},
				"text": {
					"status": "generated",
					"div": "<div xmlns=\"http://www.w3.org/1999/xhtml\">This is a simple narrative with only plain text</div>"
				},
				"status": "final",
				"category": [
					{
						"coding": [
							{
								"system": "http://hl7.org/fhir/us/core/CodeSystem/us-core-category",
								"code": "functional-status",
								"display": "Functional Status"
							}
						]
					},
					{
						"coding": [
							{
								"system": "http://terminology.hl7.org/CodeSystem/observation-category",
								"code": "survey",
								"display": "Survey"
							}
						]
					}
				],
				"code": {
					"coding": [
						{
							"system": "http://loinc.org",
							"code": "73742-9",
							"display": "Newborn hearing screen reason not performed of Ear - right"
						}
					],
					"text": "Newborn hearing screen reason not performed of Ear - right"
				},
				"subject": {
					"reference": "Patient/f288c654-6885-4f48-999c-48d776dc06af"
				},
				"effectiveDateTime": "2024-07-12T00:00:00Z",
				"performer": [
					{
						"reference": "Practitioner/8085737b-28ec-4b23-8604-83fd20076933",
						"display": "Practitioner"
					}
				],
				"valueCodeableConcept": {
					"coding": [
						{
							"system": "http://snomed.info/sct",
							"code": "103709008",
							"display": "Failed attempted procedure"
						}
					],
					"text": "Failed attempted procedure"
				}
			}
		},
		{
			"fullUrl": "http://example.org/fhir/Observation/a5e833df-4be0-4de1-afd9-4aca686fe943",
			"resource": {
				"resourceType": "Observation",
				"id": "a5e833df-4be0-4de1-afd9-4aca686fe943",
				"meta": {
					"profile": [
						"http://hl7.org/fhir/us/core/StructureDefinition/us-core-simple-observation"
					]
				},
				"text": {
					"status": "generated",
					"div": "<div xmlns=\"http://www.w3.org/1999/xhtml\">This is a simple narrative with only plain text</div>"
				},
				"status": "final",
				"category": [
					{
						"coding": [
							{
								"system": "http://terminology.hl7.org/CodeSystem/observation-category",
								"code": "exam",
								"display": "Exam"
							}
						]
					}
				],
				"code": {
					"coding": [
						{
							"system": "http://loinc.org",
							"code": "73700-7",
							"display": "CCHD Newborn Screening Interpretation"
						}
					],
					"text": "CCHD Newborn Screening Interpretation"
				},
				"subject": {
					"reference": "Patient/f288c654-6885-4f48-999c-48d776dc06af"
				},
				"effectiveDateTime": "2024-07-12T00:00:00Z",
				"performer": [
					{
						"reference": "Practitioner/8085737b-28ec-4b23-8604-83fd20076933",
						"display": "Practitioner"
					}
				],
				"valueCodeableConcept": {
					"coding": [
						{
							"system": "http://loinc.org",
							"code": "LA18593-6",
							"display": "Out of Range"
						}
					],
					"text": "Out of Range"
				}
			}
		},
		{
			"fullUrl": "http://example.org/fhir/Observation/fa5ce0c1-3137-4d1a-a7e3-b360fa1c6e2a",
			"resource": {
				"resourceType": "Observation",
				"id": "fa5ce0c1-3137-4d1a-a7e3-b360fa1c6e2a",
				"meta": {
					"profile": [
						"http://hl7.org/fhir/us/core/StructureDefinition/us-core-simple-observation"
					]
				},
				"text": {
					"status": "generated",
					"div": "<div xmlns=\"http://www.w3.org/1999/xhtml\">This is a simple narrative with only plain text</div>"
				},
				"status": "final",
				"category": [
					{
						"coding": [
							{
								"system": "http://terminology.hl7.org/CodeSystem/observation-category",
								"code": "exam",
								"display": "Exam"
							}
						]
					}
				],
				"code": {
					"coding": [
						{
							"system": "http://loinc.org",
							"code": "73739-5",
							"display": "Newborn hearing screen reason not performed of Ear - left"
						}
					],
					"text": "Newborn hearing screen reason not performed of Ear - left"
				},
				"subject": {
					"reference": "Patient/f288c654-6885-4f48-999c-48d776dc06af"
				},
				"effectiveDateTime": "2024-07-12T00:00:00Z",
				"performer": [
					{
						"reference": "Practitioner/8085737b-28ec-4b23-8604-83fd20076933",
						"display": "Practitioner"
					}
				],
				"valueCodeableConcept": {
					"coding": [
						{
							"system": "http://snomed.info/sct",
							"code": "103709008",
							"display": "Failed attempted procedure"
						}
					],
					"text": "Failed attempted procedure"
				}
			}
		},
		{
			"fullUrl": "http://example.org/fhir/Observation/6874c0b9-37fc-4844-84fb-7270445ffe8b",
			"resource": {
				"resourceType": "Observation",
				"id": "6874c0b9-37fc-4844-84fb-7270445ffe8b",
				"meta": {
					"profile": [
						"http://hl7.org/fhir/us/ph-library/StructureDefinition/us-ph-lab-result-observation"
					]
				},
				"text": {
					"status": "generated",
					"div": "<div xmlns=\"http://www.w3.org/1999/xhtml\">This is a simple narrative with only plain text</div>"
				},
				"status": "final",
				"category": [
					{
						"coding": [
							{
								"system": "http://terminology.hl7.org/CodeSystem/observation-category",
								"code": "laboratory",
								"display": "Laboratory"
							}
						],
						"text": "Laboratory"
					},
					{
						"coding": [
							{
								"system": "http://terminology.hl7.org/CodeSystem/observation-category",
								"code": "therapy",
								"display": "Therapy"
							}
						],
						"text": "Therapy"
					},
					{
						"coding": [
							{
								"system": "http://terminology.hl7.org/CodeSystem/observation-category",
								"code": "vital-signs",
								"display": "Vital Signs"
							}
						],
						"text": "Vital Signs"
					}
				],
				"code": {
					"coding": [
						{
							"system": "https://fhir.cerner.com/e8a84236-c258-4952-98b7-a6ff8a9c587a/codeSet/72",
							"code": "20564-1",
							"display": "Oxygen saturation in Arterial blood",
							"userSelected": true
						},
						{
							"system": "http://loinc.org",
							"code": "2708-6"
						},
						{
							"system": "http://loinc.org",
							"code": "59408-5"
						}
					],
					"text": "Oxygen saturation in Arterial blood"
				},
				"subject": {
					"reference": "Patient/f288c654-6885-4f48-999c-48d776dc06af"
				},
				"effectiveDateTime": "2024-07-13T15:21:00.000Z",
				"issued": "2024-07-13T15:30:25.000Z",
				"performer": [
					{
						"reference": "Practitioner/8085737b-28ec-4b23-8604-83fd20076933",
						"type": "Practitioner"
					}
				],
				"valueQuantity": {
					"value": 99,
					"unit": "%",
					"system": "http://unitsofmeasure.org",
					"code": "%"
				}
			}
		},
		{
			"fullUrl": "http://example.org/fhir/Observation/9d223a7a-eae5-45b8-bdb5-6035463c3667",
			"resource": {
				"resourceType": "Observation",
				"id": "9d223a7a-eae5-45b8-bdb5-6035463c3667",
				"meta": {
					"profile": [
						"http://hl7.org/fhir/us/core/StructureDefinition/us-core-vital-signs"
					]
				},
				"text": {
					"status": "generated",
					"div": "<div xmlns=\"http://www.w3.org/1999/xhtml\">This is a simple narrative with only plain text</div>"
				},
				"identifier": [
					{
						"system": "https://fhir.cerner.com/ceuuid",
						"value": "CE87caf4b7-9397-4667-9897-702218017c9e-197323271-2023090115225900"
					}
				],
				"status": "final",
				"category": [
					{
						"coding": [
							{
								"system": "http://terminology.hl7.org/CodeSystem/observation-category",
								"code": "vital-signs",
								"display": "Vital Signs",
								"userSelected": false
							}
						],
						"text": "Vital Signs"
					}
				],
				"code": {
					"coding": [
						{
							"system": "https://fhir.cerner.com/e8a84236-c258-4952-98b7-a6ff8a9c587a/codeSet/72",
							"code": "8336-0",
							"display": "Weight Percentile",
							"userSelected": true
						},
						{
							"system": "http://loinc.org",
							"code": "8336-0",
							"userSelected": false
						}
					],
					"text": "Weight Percentile"
				},
				"subject": {
					"reference": "Patient/f288c654-6885-4f48-999c-48d776dc06af"
				},
				"effectiveDateTime": "2024-07-13T15:21:00.000Z",
				"issued": "2024-07-13T15:22:59.000Z",
				"performer": [
					{
						"reference": "Practitioner/8085737b-28ec-4b23-8604-83fd20076933",
						"type": "Practitioner"
					}
				],
				"valueQuantity": {
					"value": 45.32
				}
			}
		},
		{
			"fullUrl": "http://example.org/fhir/Observation/3b7516fb-cdee-4f62-9376-2784cd0a06e3",
			"resource": {
				"resourceType": "Observation",
				"id": "3b7516fb-cdee-4f62-9376-2784cd0a06e3",
				"meta": {
					"profile": [
						"http://hl7.org/fhir/us/core/StructureDefinition/us-core-vital-signs"
					]
				},
				"text": {
					"status": "generated",
					"div": "<div xmlns=\"http://www.w3.org/1999/xhtml\">This is a simple narrative with only plain text</div>"
				},
				"status": "final",
				"category": [
					{
						"coding": [
							{
								"system": "http://terminology.hl7.org/CodeSystem/observation-category",
								"code": "laboratory",
								"display": "Laboratory"
							}
						],
						"text": "Laboratory"
					},
					{
						"coding": [
							{
								"system": "http://terminology.hl7.org/CodeSystem/observation-category",
								"code": "therapy",
								"display": "Therapy"
							}
						],
						"text": "Therapy"
					},
					{
						"coding": [
							{
								"system": "http://terminology.hl7.org/CodeSystem/observation-category",
								"code": "vital-signs",
								"display": "Vital Signs"
							}
						],
						"text": "Vital Signs"
					}
				],
				"code": {
					"coding": [
						{
							"system": "https://fhir.cerner.com/e8a84236-c258-4952-98b7-a6ff8a9c587a/codeSet/72",
							"code": "20564-1",
							"display": "Oxygen saturation in Arterial blood",
							"userSelected": true
						},
						{
							"system": "http://loinc.org",
							"code": "2708-6"
						},
						{
							"system": "http://loinc.org",
							"code": "59408-5"
						}
					],
					"text": "Oxygen saturation in Arterial blood"
				},
				"subject": {
					"reference": "Patient/f288c654-6885-4f48-999c-48d776dc06af"
				},
				"encounter": {
					"reference": "Encounter/7f613cae-d0e6-4e06-9026-4b4fef8273b6"
				},
				"effectiveDateTime": "2023-09-01T15:21:00.000Z",
				"issued": "2023-09-01T15:30:25.000Z",
				"performer": [
					{
						"extension": [
							{
								"url": "http://hl7.org/fhir/StructureDefinition/event-performerFunction",
								"valueCodeableConcept": {
									"coding": [
										{
											"system": "http://terminology.hl7.org/CodeSystem/v3-ParticipationType",
											"code": "LA",
											"display": "legal authenticator"
										}
									],
									"text": "legal authenticator"
								}
							}
						],
						"reference": "Practitioner/8085737b-28ec-4b23-8604-83fd20076933"
					}
				],
				"valueQuantity": {
					"value": 99,
					"unit": "%",
					"system": "http://unitsofmeasure.org",
					"code": "%"
				}
			}
		},
		{
			"fullUrl": "http://example.org/fhir/Observation/be040748-d121-4aa0-9ef1-aea716dc9632",
			"resource": {
				"resourceType": "Observation",
				"id": "be040748-d121-4aa0-9ef1-aea716dc9632",
				"meta": {
					"profile": [
						"http://hl7.org/fhir/us/core/StructureDefinition/us-core-vital-signs"
					]
				},
				"text": {
					"status": "generated",
					"div": "<div xmlns=\"http://www.w3.org/1999/xhtml\">This is a simple narrative with only plain text</div>"
				},
				"identifier": [
					{
						"system": "https://fhir.cerner.com/ceuuid",
						"value": "CE87caf4b7-9397-4667-9897-702218017c9e-197323277-2023090115302500"
					}
				],
				"status": "final",
				"category": [
					{
						"coding": [
							{
								"system": "http://terminology.hl7.org/CodeSystem/observation-category",
								"code": "vital-signs",
								"display": "Vital Signs",
								"userSelected": false
							}
						],
						"text": "Vital Signs"
					},
					{
						"coding": [
							{
								"system": "http://terminology.hl7.org/CodeSystem/observation-category",
								"code": "therapy",
								"display": "Therapy",
								"userSelected": false
							}
						],
						"text": "Therapy"
					}
				],
				"code": {
					"coding": [
						{
							"system": "https://fhir.cerner.com/e8a84236-c258-4952-98b7-a6ff8a9c587a/codeSet/72",
							"code": "22831122",
							"display": "Oxygen saturation in Arterial blood Location",
							"userSelected": true
						},
						{
							"system": "http://loinc.org",
							"code": "20081-6",
							"userSelected": false
						}
					],
					"text": "Oxygen saturation in Arterial blood Location"
				},
				"subject": {
					"reference": "Patient/f288c654-6885-4f48-999c-48d776dc06af"
				},
				"encounter": {
					"reference": "Encounter/7f613cae-d0e6-4e06-9026-4b4fef8273b6"
				},
				"effectiveDateTime": "2023-09-01T15:21:00.000Z",
				"issued": "2023-09-01T15:30:25.000Z",
				"performer": [
					{
						"extension": [
							{
								"url": "http://hl7.org/fhir/StructureDefinition/event-performerFunction",
								"valueCodeableConcept": {
									"coding": [
										{
											"system": "http://terminology.hl7.org/CodeSystem/v3-ParticipationType",
											"code": "PPRF",
											"display": "primary performer"
										}
									],
									"text": "primary performer"
								}
							},
							{
								"url": "http://hl7.org/fhir/StructureDefinition/event-performerFunction",
								"valueCodeableConcept": {
									"coding": [
										{
											"system": "http://terminology.hl7.org/CodeSystem/v3-ParticipationType",
											"code": "LA",
											"display": "legal authenticator"
										}
									],
									"text": "legal authenticator"
								}
							}
						],
						"reference": "Practitioner/8085737b-28ec-4b23-8604-83fd20076933"
					}
				],
				"valueCodeableConcept": {
					"coding": [
						{
							"system": "http://snomed.info/sct",
							"code": "78791008",
							"display": "Structure of right hand (body structure)",
							"userSelected": false
						}
					],
					"text": "Right hand"
				}
			}
		},
		{
			"fullUrl": "http://example.org/fhir/Observation/b24c8642-4233-4680-9019-53eda8b84a1a",
			"resource": {
				"resourceType": "Observation",
				"id": "b24c8642-4233-4680-9019-53eda8b84a1a",
				"meta": {
					"profile": [
						"http://hl7.org/fhir/us/core/StructureDefinition/us-core-vital-signs"
					]
				},
				"text": {
					"status": "generated",
					"div": "<div xmlns=\"http://www.w3.org/1999/xhtml\">This is a simple narrative with only plain text</div>"
				},
				"identifier": [
					{
						"system": "https://fhir.cerner.com/ceuuid",
						"value": "CE87caf4b7-9397-4667-9897-702218017c9e-197323273-2023090115225900"
					}
				],
				"status": "final",
				"category": [
					{
						"coding": [
							{
								"system": "http://terminology.hl7.org/CodeSystem/observation-category",
								"code": "vital-signs",
								"display": "Vital Signs",
								"userSelected": false
							}
						],
						"text": "Vital Signs"
					}
				],
				"code": {
					"coding": [
						{
							"system": "https://fhir.cerner.com/e8a84236-c258-4952-98b7-a6ff8a9c587a/codeSet/72",
							"code": "2571601133",
							"display": "Weight Z-Score",
							"userSelected": true
						}
					],
					"text": "Weight Z-Score"
				},
				"subject": {
					"reference": "Patient/f288c654-6885-4f48-999c-48d776dc06af"
				},
				"encounter": {
					"reference": "Encounter/7f613cae-d0e6-4e06-9026-4b4fef8273b6"
				},
				"effectiveDateTime": "2023-09-01T15:21:00.000Z",
				"issued": "2023-09-01T15:22:59.000Z",
				"performer": [
					{
						"extension": [
							{
								"url": "http://hl7.org/fhir/StructureDefinition/event-performerFunction",
								"valueCodeableConcept": {
									"coding": [
										{
											"system": "http://terminology.hl7.org/CodeSystem/v3-ParticipationType",
											"code": "LA",
											"display": "legal authenticator"
										}
									],
									"text": "legal authenticator"
								}
							},
							{
								"url": "http://hl7.org/fhir/StructureDefinition/event-performerFunction",
								"valueCodeableConcept": {
									"coding": [
										{
											"system": "http://terminology.hl7.org/CodeSystem/v3-ParticipationType",
											"code": "PPRF",
											"display": "primary performer"
										}
									],
									"text": "primary performer"
								}
							}
						],
						"reference": "Practitioner/8085737b-28ec-4b23-8604-83fd20076933"
					}
				],
				"valueQuantity": {
					"value": -0.12
				},
				"note": [
					{
						"authorReference": {
							"reference": "Practitioner/8085737b-28ec-4b23-8604-83fd20076933"
						},
						"time": "2023-09-01T15:22:59Z",
						"text": "^~:!ZScore Source -CDC-WHO"
					}
				]
			}
		},
		{
			"fullUrl": "http://example.org/fhir/Observation/f5e77660-36eb-4764-99f0-b99352cbd5e7",
			"resource": {
				"resourceType": "Observation",
				"id": "f5e77660-36eb-4764-99f0-b99352cbd5e7",
				"meta": {
					"profile": [
						"http://hl7.org/fhir/us/core/StructureDefinition/us-core-vital-signs"
					]
				},
				"text": {
					"status": "generated",
					"div": "<div xmlns=\"http://www.w3.org/1999/xhtml\">This is a simple narrative with only plain text</div>"
				},
				"identifier": [
					{
						"system": "https://fhir.cerner.com/ceuuid",
						"value": "CE87caf4b7-9397-4667-9897-702218017c9e-197323271-2023090115225900"
					}
				],
				"status": "final",
				"category": [
					{
						"coding": [
							{
								"system": "http://terminology.hl7.org/CodeSystem/observation-category",
								"code": "vital-signs",
								"display": "Vital Signs",
								"userSelected": false
							}
						],
						"text": "Vital Signs"
					}
				],
				"code": {
					"coding": [
						{
							"system": "https://fhir.cerner.com/e8a84236-c258-4952-98b7-a6ff8a9c587a/codeSet/72",
							"code": "8336-0",
							"display": "Weight Percentile",
							"userSelected": true
						},
						{
							"system": "http://loinc.org",
							"code": "8336-0",
							"userSelected": false
						}
					],
					"text": "Weight Percentile"
				},
				"subject": {
					"reference": "Patient/f288c654-6885-4f48-999c-48d776dc06af"
				},
				"encounter": {
					"reference": "Encounter/7f613cae-d0e6-4e06-9026-4b4fef8273b6"
				},
				"effectiveDateTime": "2023-09-01T15:21:00.000Z",
				"issued": "2023-09-01T15:22:59.000Z",
				"performer": [
					{
						"extension": [
							{
								"url": "http://hl7.org/fhir/StructureDefinition/event-performerFunction",
								"valueCodeableConcept": {
									"coding": [
										{
											"system": "http://terminology.hl7.org/CodeSystem/v3-ParticipationType",
											"code": "LA",
											"display": "legal authenticator"
										}
									],
									"text": "legal authenticator"
								}
							},
							{
								"url": "http://hl7.org/fhir/StructureDefinition/event-performerFunction",
								"valueCodeableConcept": {
									"coding": [
										{
											"system": "http://terminology.hl7.org/CodeSystem/v3-ParticipationType",
											"code": "PPRF",
											"display": "primary performer"
										}
									],
									"text": "primary performer"
								}
							}
						],
						"reference": "Practitioner/8085737b-28ec-4b23-8604-83fd20076933"
					}
				],
				"valueQuantity": {
					"value": 45.32
				},
				"note": [
					{
						"authorReference": {
							"reference": "Practitioner/8085737b-28ec-4b23-8604-83fd20076933"
						},
						"time": "2023-09-01T15:22:59Z",
						"text": "^~:!Percentile Source -CDC-WHO"
					}
				]
			}
		},
		{
			"fullUrl": "http://example.org/fhir/Observation/d5b6c4d0-89c3-4b8e-95c7-889b52fcd81d",
			"resource": {
				"resourceType": "Observation",
				"id": "d5b6c4d0-89c3-4b8e-95c7-889b52fcd81d",
				"meta": {
					"profile": [
						"http://hl7.org/fhir/us/core/StructureDefinition/us-core-vital-signs"
					]
				},
				"text": {
					"status": "generated",
					"div": "<div xmlns=\"http://www.w3.org/1999/xhtml\">This is a simple narrative with only plain text</div>"
				},
				"identifier": [
					{
						"system": "https://fhir.cerner.com/ceuuid",
						"value": "CE87caf4b7-9397-4667-9897-702218017c9e-197323269-2023090115225900"
					}
				],
				"status": "final",
				"category": [
					{
						"coding": [
							{
								"system": "http://terminology.hl7.org/CodeSystem/observation-category",
								"code": "vital-signs",
								"display": "Vital Signs",
								"userSelected": false
							}
						],
						"text": "Vital Signs"
					}
				],
				"code": {
					"coding": [
						{
							"system": "https://fhir.cerner.com/e8a84236-c258-4952-98b7-a6ff8a9c587a/codeSet/72",
							"code": "2571601141",
							"display": "Height Z-Score",
							"userSelected": true
						}
					],
					"text": "Height Z-Score"
				},
				"subject": {
					"reference": "Patient/f288c654-6885-4f48-999c-48d776dc06af"
				},
				"encounter": {
					"reference": "Encounter/7f613cae-d0e6-4e06-9026-4b4fef8273b6"
				},
				"effectiveDateTime": "2023-09-01T15:21:00.000Z",
				"issued": "2023-09-01T15:22:58.000Z",
				"performer": [
					{
						"extension": [
							{
								"url": "http://hl7.org/fhir/StructureDefinition/event-performerFunction",
								"valueCodeableConcept": {
									"coding": [
										{
											"system": "http://terminology.hl7.org/CodeSystem/v3-ParticipationType",
											"code": "LA",
											"display": "legal authenticator"
										}
									],
									"text": "legal authenticator"
								}
							},
							{
								"url": "http://hl7.org/fhir/StructureDefinition/event-performerFunction",
								"valueCodeableConcept": {
									"coding": [
										{
											"system": "http://terminology.hl7.org/CodeSystem/v3-ParticipationType",
											"code": "PPRF",
											"display": "primary performer"
										}
									],
									"text": "primary performer"
								}
							}
						],
						"reference": "Practitioner/8085737b-28ec-4b23-8604-83fd20076933"
					}
				],
				"valueQuantity": {
					"value": -0.17
				},
				"note": [
					{
						"authorReference": {
							"reference": "Practitioner/8085737b-28ec-4b23-8604-83fd20076933"
						},
						"time": "2023-09-01T15:22:58Z",
						"text": "^~:!ZScore Source -CDC-WHO"
					}
				]
			}
		},
		{
			"fullUrl": "http://example.org/fhir/Observation/ee7b768d-a934-4ac7-b2ab-400f204d13df",
			"resource": {
				"resourceType": "Observation",
				"id": "ee7b768d-a934-4ac7-b2ab-400f204d13df",
				"meta": {
					"profile": [
						"http://hl7.org/fhir/us/core/StructureDefinition/us-core-vital-signs"
					]
				},
				"text": {
					"status": "generated",
					"div": "<div xmlns=\"http://www.w3.org/1999/xhtml\">This is a simple narrative with only plain text</div>"
				},
				"identifier": [
					{
						"system": "https://fhir.cerner.com/ceuuid",
						"value": "CE87caf4b7-9397-4667-9897-702218017c9e-197323267-2023090115225800"
					}
				],
				"status": "final",
				"category": [
					{
						"coding": [
							{
								"system": "http://terminology.hl7.org/CodeSystem/observation-category",
								"code": "vital-signs",
								"display": "Vital Signs",
								"userSelected": false
							}
						],
						"text": "Vital Signs"
					}
				],
				"code": {
					"coding": [
						{
							"system": "https://fhir.cerner.com/e8a84236-c258-4952-98b7-a6ff8a9c587a/codeSet/72",
							"code": "2571601137",
							"display": "Height Percentile",
							"userSelected": true
						},
						{
							"system": "http://loinc.org",
							"code": "8303-0",
							"userSelected": false
						}
					],
					"text": "Height Percentile"
				},
				"subject": {
					"reference": "Patient/f288c654-6885-4f48-999c-48d776dc06af"
				},
				"encounter": {
					"reference": "Encounter/7f613cae-d0e6-4e06-9026-4b4fef8273b6"
				},
				"effectiveDateTime": "2023-09-01T15:21:00.000Z",
				"issued": "2023-09-01T15:22:58.000Z",
				"performer": [
					{
						"extension": [
							{
								"url": "http://hl7.org/fhir/StructureDefinition/event-performerFunction",
								"valueCodeableConcept": {
									"coding": [
										{
											"system": "http://terminology.hl7.org/CodeSystem/v3-ParticipationType",
											"code": "LA",
											"display": "legal authenticator"
										}
									],
									"text": "legal authenticator"
								}
							},
							{
								"url": "http://hl7.org/fhir/StructureDefinition/event-performerFunction",
								"valueCodeableConcept": {
									"coding": [
										{
											"system": "http://terminology.hl7.org/CodeSystem/v3-ParticipationType",
											"code": "PPRF",
											"display": "primary performer"
										}
									],
									"text": "primary performer"
								}
							}
						],
						"reference": "Practitioner/8085737b-28ec-4b23-8604-83fd20076933"
					}
				],
				"valueQuantity": {
					"value": 43.16
				},
				"note": [
					{
						"authorReference": {
							"reference": "Practitioner/8085737b-28ec-4b23-8604-83fd20076933"
						},
						"time": "2023-09-01T15:22:58Z",
						"text": "^~:!Percentile Source -CDC-WHO"
					}
				]
			}
		},
		{
			"fullUrl": "http://example.org/fhir/Observation/5254cbb8-d1d3-4122-8bb5-39238b24ee36",
			"resource": {
				"resourceType": "Observation",
				"id": "5254cbb8-d1d3-4122-8bb5-39238b24ee36",
				"meta": {
					"profile": [
						"http://hl7.org/fhir/us/core/StructureDefinition/us-core-vital-signs"
					]
				},
				"text": {
					"status": "generated",
					"div": "<div xmlns=\"http://www.w3.org/1999/xhtml\">This is a simple narrative with only plain text</div>"
				},
				"identifier": [
					{
						"system": "https://fhir.cerner.com/ceuuid",
						"value": "CE87caf4b7-9397-4667-9897-702218017c9e-197323265-2023090115225700"
					}
				],
				"status": "final",
				"category": [
					{
						"coding": [
							{
								"system": "http://terminology.hl7.org/CodeSystem/observation-category",
								"code": "vital-signs",
								"display": "Vital Signs",
								"userSelected": false
							}
						],
						"text": "Vital Signs"
					}
				],
				"code": {
					"coding": [
						{
							"system": "https://fhir.cerner.com/e8a84236-c258-4952-98b7-a6ff8a9c587a/codeSet/72",
							"code": "711303",
							"display": "Cumulative Weight Gain",
							"userSelected": true
						},
						{
							"system": "http://snomed.info/sct",
							"code": "363805003",
							"display": "Weight gain (amount) (observable entity)",
							"userSelected": false
						}
					],
					"text": "Cumulative Weight Gain"
				},
				"subject": {
					"reference": "Patient/f288c654-6885-4f48-999c-48d776dc06af"
				},
				"encounter": {
					"reference": "Encounter/7f613cae-d0e6-4e06-9026-4b4fef8273b6"
				},
				"effectiveDateTime": "2023-09-01T15:21:00.000Z",
				"issued": "2023-09-01T15:22:57.000Z",
				"performer": [
					{
						"extension": [
							{
								"url": "http://hl7.org/fhir/StructureDefinition/event-performerFunction",
								"valueCodeableConcept": {
									"coding": [
										{
											"system": "http://terminology.hl7.org/CodeSystem/v3-ParticipationType",
											"code": "PPRF",
											"display": "primary performer"
										}
									],
									"text": "primary performer"
								}
							},
							{
								"url": "http://hl7.org/fhir/StructureDefinition/event-performerFunction",
								"valueCodeableConcept": {
									"coding": [
										{
											"system": "http://terminology.hl7.org/CodeSystem/v3-ParticipationType",
											"code": "LA",
											"display": "legal authenticator"
										}
									],
									"text": "legal authenticator"
								}
							}
						],
						"reference": "Practitioner/8085737b-28ec-4b23-8604-83fd20076933"
					}
				],
				"valueQuantity": {
					"value": 1,
					"unit": "kg",
					"system": "http://unitsofmeasure.org",
					"code": "kg"
				}
			}
		},
		{
			"fullUrl": "http://example.org/fhir/Observation/3d7ba56c-1e69-4d01-86f8-5fe56c2eb603",
			"resource": {
				"resourceType": "Observation",
				"id": "3d7ba56c-1e69-4d01-86f8-5fe56c2eb603",
				"meta": {
					"profile": [
						"http://hl7.org/fhir/us/core/StructureDefinition/us-core-vital-signs"
					]
				},
				"text": {
					"status": "generated",
					"div": "<div xmlns=\"http://www.w3.org/1999/xhtml\">This is a simple narrative with only plain text</div>"
				},
				"identifier": [
					{
						"system": "https://fhir.cerner.com/ceuuid",
						"value": "CE87caf4b7-9397-4667-9897-702218017c9e-197323263-2023090115225700"
					}
				],
				"status": "final",
				"category": [
					{
						"coding": [
							{
								"system": "http://terminology.hl7.org/CodeSystem/observation-category",
								"code": "vital-signs",
								"display": "Vital Signs",
								"userSelected": false
							}
						],
						"text": "Vital Signs"
					}
				],
				"code": {
					"coding": [
						{
							"system": "https://fhir.cerner.com/e8a84236-c258-4952-98b7-a6ff8a9c587a/codeSet/72",
							"code": "711300",
							"display": "Pre-Pregnancy Weight",
							"userSelected": true
						},
						{
							"system": "http://loinc.org",
							"code": "29463-7",
							"userSelected": false
						},
						{
							"system": "http://loinc.org",
							"code": "8348-5",
							"userSelected": false
						}
					],
					"text": "Pre-Pregnancy Weight"
				},
				"subject": {
					"reference": "Patient/f288c654-6885-4f48-999c-48d776dc06af"
				},
				"encounter": {
					"reference": "Encounter/7f613cae-d0e6-4e06-9026-4b4fef8273b6"
				},
				"effectiveDateTime": "2023-09-01T15:21:00.000Z",
				"issued": "2023-09-01T15:22:57.000Z",
				"performer": [
					{
						"extension": [
							{
								"url": "http://hl7.org/fhir/StructureDefinition/event-performerFunction",
								"valueCodeableConcept": {
									"coding": [
										{
											"system": "http://terminology.hl7.org/CodeSystem/v3-ParticipationType",
											"code": "PPRF",
											"display": "primary performer"
										}
									],
									"text": "primary performer"
								}
							},
							{
								"url": "http://hl7.org/fhir/StructureDefinition/event-performerFunction",
								"valueCodeableConcept": {
									"coding": [
										{
											"system": "http://terminology.hl7.org/CodeSystem/v3-ParticipationType",
											"code": "LA",
											"display": "legal authenticator"
										}
									],
									"text": "legal authenticator"
								}
							}
						],
						"reference": "Practitioner/8085737b-28ec-4b23-8604-83fd20076933"
					}
				],
				"valueQuantity": {
					"value": 2.3,
					"unit": "kg",
					"system": "http://unitsofmeasure.org",
					"code": "kg"
				}
			}
		},
		{
			"fullUrl": "http://example.org/fhir/Observation/efa8b481-2afc-46e8-90f9-2294031a09b2",
			"resource": {
				"resourceType": "Observation",
				"id": "efa8b481-2afc-46e8-90f9-2294031a09b2",
				"meta": {
					"profile": [
						"http://hl7.org/fhir/us/core/StructureDefinition/us-core-vital-signs"
					]
				},
				"text": {
					"status": "generated",
					"div": "<div xmlns=\"http://www.w3.org/1999/xhtml\">This is a simple narrative with only plain text</div>"
				},
				"identifier": [
					{
						"system": "https://fhir.cerner.com/ceuuid",
						"value": "CE87caf4b7-9397-4667-9897-702218017c9e-197323261-2023090115225700"
					}
				],
				"status": "final",
				"category": [
					{
						"coding": [
							{
								"system": "http://terminology.hl7.org/CodeSystem/observation-category",
								"code": "vital-signs",
								"display": "Vital Signs"
							}
						],
						"text": "Vital Signs"
					}
				],
				"code": {
					"coding": [
						{
							"system": "https://fhir.cerner.com/e8a84236-c258-4952-98b7-a6ff8a9c587a/codeSet/72",
							"code": "4154120",
							"display": "Weight Measured",
							"userSelected": true
						},
						{
							"system": "http://loinc.org",
							"code": "29463-7"
						},
						{
							"system": "http://loinc.org",
							"code": "3141-9"
						}
					],
					"text": "Weight Measured"
				},
				"subject": {
					"reference": "Patient/f288c654-6885-4f48-999c-48d776dc06af"
				},
				"encounter": {
					"reference": "Encounter/7f613cae-d0e6-4e06-9026-4b4fef8273b6"
				},
				"effectiveDateTime": "2023-09-01T15:21:00.000Z",
				"issued": "2023-09-01T15:22:57.000Z",
				"performer": [
					{
						"extension": [
							{
								"url": "http://hl7.org/fhir/StructureDefinition/event-performerFunction",
								"valueCodeableConcept": {
									"coding": [
										{
											"system": "http://terminology.hl7.org/CodeSystem/v3-ParticipationType",
											"code": "LA",
											"display": "legal authenticator"
										}
									],
									"text": "legal authenticator"
								}
							}
						],
						"reference": "Practitioner/8085737b-28ec-4b23-8604-83fd20076933"
					}
				],
				"valueQuantity": {
					"extension": [
						{
							"url": "http://hl7.org/fhir/StructureDefinition/iso21090-PQ-translation",
							"valueQuantity": {
								"value": 3200000000000,
								"unit": "ng",
								"system": "http://unitsofmeasure.org",
								"code": "ng"
							}
						},
						{
							"url": "http://hl7.org/fhir/StructureDefinition/iso21090-PQ-translation",
							"valueQuantity": {
								"value": 3200000000,
								"unit": "mcg",
								"system": "http://unitsofmeasure.org",
								"code": "ug"
							}
						},
						{
							"url": "http://hl7.org/fhir/StructureDefinition/iso21090-PQ-translation",
							"valueQuantity": {
								"value": 3200000,
								"unit": "mg",
								"system": "http://unitsofmeasure.org",
								"code": "mg"
							}
						},
						{
							"url": "http://hl7.org/fhir/StructureDefinition/iso21090-PQ-translation",
							"valueQuantity": {
								"value": 320000,
								"unit": "cg",
								"system": "http://unitsofmeasure.org",
								"code": "cg"
							}
						},
						{
							"url": "http://hl7.org/fhir/StructureDefinition/iso21090-PQ-translation",
							"valueQuantity": {
								"value": 32000,
								"unit": "dgm",
								"system": "http://unitsofmeasure.org",
								"code": "dg"
							}
						},
						{
							"url": "http://hl7.org/fhir/StructureDefinition/iso21090-PQ-translation",
							"valueQuantity": {
								"value": 3200,
								"unit": "g",
								"system": "http://unitsofmeasure.org",
								"code": "g"
							}
						},
						{
							"url": "http://hl7.org/fhir/StructureDefinition/iso21090-PQ-translation",
							"valueQuantity": {
								"value": 112.877,
								"unit": "oz",
								"system": "http://unitsofmeasure.org",
								"code": "[oz_av]"
							}
						},
						{
							"url": "http://hl7.org/fhir/StructureDefinition/iso21090-PQ-translation",
							"valueQuantity": {
								"value": 7.055,
								"unit": "lb",
								"system": "http://unitsofmeasure.org",
								"code": "[lb_av]"
							}
						}
					],
					"value": 3.2,
					"unit": "kg",
					"system": "http://unitsofmeasure.org",
					"code": "kg"
				}
			}
		},
		{
			"fullUrl": "http://example.org/fhir/Observation/89055ce8-4993-4149-bd44-7062f69b06c1",
			"resource": {
				"resourceType": "Observation",
				"id": "89055ce8-4993-4149-bd44-7062f69b06c1",
				"meta": {
					"profile": [
						"http://hl7.org/fhir/us/core/StructureDefinition/us-core-vital-signs"
					]
				},
				"text": {
					"status": "generated",
					"div": "<div xmlns=\"http://www.w3.org/1999/xhtml\">This is a simple narrative with only plain text</div>"
				},
				"identifier": [
					{
						"system": "https://fhir.cerner.com/ceuuid",
						"value": "CE87caf4b7-9397-4667-9897-702218017c9e-197323259-2023090115225700"
					}
				],
				"status": "final",
				"category": [
					{
						"coding": [
							{
								"system": "http://terminology.hl7.org/CodeSystem/observation-category",
								"code": "procedure",
								"display": "Procedure"
							}
						],
						"text": "Procedure"
					},
					{
						"coding": [
							{
								"system": "http://terminology.hl7.org/CodeSystem/observation-category",
								"code": "therapy",
								"display": "Therapy"
							}
						],
						"text": "Therapy"
					},
					{
						"coding": [
							{
								"system": "http://terminology.hl7.org/CodeSystem/observation-category",
								"code": "vital-signs",
								"display": "Vital Signs"
							}
						],
						"text": "Vital Signs"
					}
				],
				"code": {
					"coding": [
						{
							"system": "https://fhir.cerner.com/e8a84236-c258-4952-98b7-a6ff8a9c587a/codeSet/72",
							"code": "4154126",
							"display": "Height/Length Measured",
							"userSelected": true
						},
						{
							"system": "http://loinc.org",
							"code": "3137-7"
						},
						{
							"system": "http://loinc.org",
							"code": "8302-2"
						}
					],
					"text": "Height/Length Measured"
				},
				"subject": {
					"reference": "Patient/f288c654-6885-4f48-999c-48d776dc06af"
				},
				"encounter": {
					"reference": "Encounter/7f613cae-d0e6-4e06-9026-4b4fef8273b6"
				},
				"effectiveDateTime": "2023-09-01T15:21:00.000Z",
				"issued": "2023-09-01T15:22:57.000Z",
				"performer": [
					{
						"extension": [
							{
								"url": "http://hl7.org/fhir/StructureDefinition/event-performerFunction",
								"valueCodeableConcept": {
									"coding": [
										{
											"system": "http://terminology.hl7.org/CodeSystem/v3-ParticipationType",
											"code": "LA",
											"display": "legal authenticator"
										}
									],
									"text": "legal authenticator"
								}
							}
						],
						"reference": "Practitioner/8085737b-28ec-4b23-8604-83fd20076933"
					}
				],
				"valueQuantity": {
					"extension": [
						{
							"url": "http://hl7.org/fhir/StructureDefinition/iso21090-PQ-translation",
							"valueQuantity": {
								"value": 495,
								"unit": "mm",
								"system": "http://unitsofmeasure.org",
								"code": "mm"
							}
						},
						{
							"url": "http://hl7.org/fhir/StructureDefinition/iso21090-PQ-translation",
							"valueQuantity": {
								"value": 4.95,
								"unit": "dm",
								"system": "http://unitsofmeasure.org",
								"code": "dm"
							}
						},
						{
							"url": "http://hl7.org/fhir/StructureDefinition/iso21090-PQ-translation",
							"valueQuantity": {
								"value": 0.5,
								"unit": "m",
								"system": "http://unitsofmeasure.org",
								"code": "m"
							}
						},
						{
							"url": "http://hl7.org/fhir/StructureDefinition/iso21090-PQ-translation",
							"valueQuantity": {
								"value": 19.49,
								"unit": "in",
								"system": "http://unitsofmeasure.org",
								"code": "[in_i]"
							}
						},
						{
							"url": "http://hl7.org/fhir/StructureDefinition/iso21090-PQ-translation",
							"valueQuantity": {
								"value": 1.62,
								"unit": "ft",
								"system": "http://unitsofmeasure.org",
								"code": "[ft_i]"
							}
						}
					],
					"value": 49.5,
					"unit": "cm",
					"system": "http://unitsofmeasure.org",
					"code": "cm"
				}
			}
		},
		{
			"fullUrl": "http://example.org/fhir/Observation/c6b36f87-315d-4b2c-9b42-b22a79dec4e7",
			"resource": {
				"resourceType": "Observation",
				"id": "c6b36f87-315d-4b2c-9b42-b22a79dec4e7",
				"meta": {
					"profile": [
						"http://hl7.org/fhir/us/core/StructureDefinition/us-core-simple-observation"
					]
				},
				"text": {
					"status": "generated",
					"div": "<div xmlns=\"http://www.w3.org/1999/xhtml\">This is a simple narrative with only plain text</div>"
				},
				"identifier": [
					{
						"system": "https://fhir.cerner.com/ceuuid",
						"value": "CE87caf4b7-9397-4667-9897-702218017c9e-197323257-2023090115182000"
					}
				],
				"status": "final",
				"category": [
					{
						"extension": [
							{
								"url": "http://hl7.org/fhir/StructureDefinition/data-absent-reason",
								"valueCode": "unknown"
							}
						]
					}
				],
				"code": {
					"coding": [
						{
							"system": "https://fhir.cerner.com/e8a84236-c258-4952-98b7-a6ff8a9c587a/codeSet/72",
							"code": "2568875925",
							"display": "Audiological Referral Date",
							"userSelected": true
						}
					],
					"text": "Audiological Referral Date"
				},
				"subject": {
					"reference": "Patient/f288c654-6885-4f48-999c-48d776dc06af"
				},
				"encounter": {
					"reference": "Encounter/7f613cae-d0e6-4e06-9026-4b4fef8273b6"
				},
				"effectiveDateTime": "2023-09-01T15:17:00.000Z",
				"issued": "2023-09-01T15:18:19.000Z",
				"performer": [
					{
						"extension": [
							{
								"url": "http://hl7.org/fhir/StructureDefinition/event-performerFunction",
								"valueCodeableConcept": {
									"coding": [
										{
											"system": "http://terminology.hl7.org/CodeSystem/v3-ParticipationType",
											"code": "PPRF",
											"display": "primary performer"
										}
									],
									"text": "primary performer"
								}
							},
							{
								"url": "http://hl7.org/fhir/StructureDefinition/event-performerFunction",
								"valueCodeableConcept": {
									"coding": [
										{
											"system": "http://terminology.hl7.org/CodeSystem/v3-ParticipationType",
											"code": "LA",
											"display": "legal authenticator"
										}
									],
									"text": "legal authenticator"
								}
							}
						],
						"reference": "Practitioner/8085737b-28ec-4b23-8604-83fd20076933"
					}
				],
				"valueDateTime": "2023-09-23"
			}
		},
		{
			"fullUrl": "http://example.org/fhir/Observation/86add42b-50a9-44d5-9cec-33abcf160981",
			"resource": {
				"resourceType": "Observation",
				"id": "86add42b-50a9-44d5-9cec-33abcf160981",
				"meta": {
					"profile": [
						"http://hl7.org/fhir/us/core/StructureDefinition/us-core-simple-observation"
					]
				},
				"text": {
					"status": "generated",
					"div": "<div xmlns=\"http://www.w3.org/1999/xhtml\">This is a simple narrative with only plain text</div>"
				},
				"identifier": [
					{
						"system": "https://fhir.cerner.com/ceuuid",
						"value": "CE87caf4b7-9397-4667-9897-702218017c9e-197323255-2023090115182000"
					}
				],
				"status": "final",
				"category": [
					{
						"extension": [
							{
								"url": "http://hl7.org/fhir/StructureDefinition/data-absent-reason",
								"valueCode": "unknown"
							}
						]
					}
				],
				"code": {
					"coding": [
						{
							"system": "https://fhir.cerner.com/e8a84236-c258-4952-98b7-a6ff8a9c587a/codeSet/72",
							"code": "2568875915",
							"display": "Audiological Referral Scheduled",
							"userSelected": true
						}
					],
					"text": "Audiological Referral Scheduled"
				},
				"subject": {
					"reference": "Patient/f288c654-6885-4f48-999c-48d776dc06af"
				},
				"encounter": {
					"reference": "Encounter/7f613cae-d0e6-4e06-9026-4b4fef8273b6"
				},
				"effectiveDateTime": "2023-09-01T15:17:00.000Z",
				"issued": "2023-09-01T15:18:19.000Z",
				"performer": [
					{
						"extension": [
							{
								"url": "http://hl7.org/fhir/StructureDefinition/event-performerFunction",
								"valueCodeableConcept": {
									"coding": [
										{
											"system": "http://terminology.hl7.org/CodeSystem/v3-ParticipationType",
											"code": "PPRF",
											"display": "primary performer"
										}
									],
									"text": "primary performer"
								}
							},
							{
								"url": "http://hl7.org/fhir/StructureDefinition/event-performerFunction",
								"valueCodeableConcept": {
									"coding": [
										{
											"system": "http://terminology.hl7.org/CodeSystem/v3-ParticipationType",
											"code": "LA",
											"display": "legal authenticator"
										}
									],
									"text": "legal authenticator"
								}
							}
						],
						"reference": "Practitioner/8085737b-28ec-4b23-8604-83fd20076933"
					}
				],
				"valueCodeableConcept": {
					"coding": [
						{
							"system": "http://snomed.info/sct",
							"code": "373066001",
							"display": "Yes (qualifier value)",
							"userSelected": false
						}
					],
					"text": "Yes"
				}
			}
		},
		{
			"fullUrl": "http://example.org/fhir/Observation/4260ca66-9f5c-4ea7-bf0d-851c12dd9021",
			"resource": {
				"resourceType": "Observation",
				"id": "4260ca66-9f5c-4ea7-bf0d-851c12dd9021",
				"meta": {
					"profile": [
						"http://hl7.org/fhir/us/core/StructureDefinition/us-core-simple-observation"
					]
				},
				"text": {
					"status": "generated",
					"div": "<div xmlns=\"http://www.w3.org/1999/xhtml\">This is a simple narrative with only plain text</div>"
				},
				"identifier": [
					{
						"system": "https://fhir.cerner.com/ceuuid",
						"value": "CE87caf4b7-9397-4667-9897-702218017c9e-197323253-2023090115182000"
					}
				],
				"status": "final",
				"category": [
					{
						"extension": [
							{
								"url": "http://hl7.org/fhir/StructureDefinition/data-absent-reason",
								"valueCode": "unknown"
							}
						]
					}
				],
				"code": {
					"coding": [
						{
							"system": "https://fhir.cerner.com/e8a84236-c258-4952-98b7-a6ff8a9c587a/codeSet/72",
							"code": "18752033",
							"display": "Parent, Guardian Notified of Result",
							"userSelected": true
						}
					],
					"text": "Parent, Guardian Notified of Result"
				},
				"subject": {
					"reference": "Patient/f288c654-6885-4f48-999c-48d776dc06af"
				},
				"encounter": {
					"reference": "Encounter/7f613cae-d0e6-4e06-9026-4b4fef8273b6"
				},
				"effectiveDateTime": "2023-09-01T15:17:00.000Z",
				"issued": "2023-09-01T15:18:19.000Z",
				"performer": [
					{
						"extension": [
							{
								"url": "http://hl7.org/fhir/StructureDefinition/event-performerFunction",
								"valueCodeableConcept": {
									"coding": [
										{
											"system": "http://terminology.hl7.org/CodeSystem/v3-ParticipationType",
											"code": "PPRF",
											"display": "primary performer"
										}
									],
									"text": "primary performer"
								}
							},
							{
								"url": "http://hl7.org/fhir/StructureDefinition/event-performerFunction",
								"valueCodeableConcept": {
									"coding": [
										{
											"system": "http://terminology.hl7.org/CodeSystem/v3-ParticipationType",
											"code": "LA",
											"display": "legal authenticator"
										}
									],
									"text": "legal authenticator"
								}
							}
						],
						"reference": "Practitioner/8085737b-28ec-4b23-8604-83fd20076933"
					}
				],
				"valueCodeableConcept": {
					"coding": [
						{
							"system": "http://snomed.info/sct",
							"code": "373066001",
							"display": "Yes (qualifier value)",
							"userSelected": false
						}
					],
					"text": "Yes"
				}
			}
		},
		{
			"fullUrl": "http://example.org/fhir/Observation/39f0caa3-7e3a-45c1-a029-171739b889d6",
			"resource": {
				"resourceType": "Observation",
				"id": "39f0caa3-7e3a-45c1-a029-171739b889d6",
				"meta": {
					"profile": [
						"http://hl7.org/fhir/us/core/StructureDefinition/us-core-simple-observation"
					]
				},
				"text": {
					"status": "generated",
					"div": "<div xmlns=\"http://www.w3.org/1999/xhtml\">This is a simple narrative with only plain text</div>"
				},
				"identifier": [
					{
						"system": "https://fhir.cerner.com/ceuuid",
						"value": "CE87caf4b7-9397-4667-9897-702218017c9e-197323251-2023090115182000"
					}
				],
				"status": "final",
				"category": [
					{
						"extension": [
							{
								"url": "http://hl7.org/fhir/StructureDefinition/data-absent-reason",
								"valueCode": "unknown"
							}
						]
					}
				],
				"code": {
					"coding": [
						{
							"system": "https://fhir.cerner.com/e8a84236-c258-4952-98b7-a6ff8a9c587a/codeSet/72",
							"code": "2568875905",
							"display": "Hearing Test Performed Date, Time",
							"userSelected": true
						}
					],
					"text": "Hearing Test Performed Date, Time"
				},
				"subject": {
					"reference": "Patient/f288c654-6885-4f48-999c-48d776dc06af"
				},
				"encounter": {
					"reference": "Encounter/7f613cae-d0e6-4e06-9026-4b4fef8273b6"
				},
				"effectiveDateTime": "2023-09-01T15:17:00.000Z",
				"issued": "2023-09-01T15:18:19.000Z",
				"performer": [
					{
						"extension": [
							{
								"url": "http://hl7.org/fhir/StructureDefinition/event-performerFunction",
								"valueCodeableConcept": {
									"coding": [
										{
											"system": "http://terminology.hl7.org/CodeSystem/v3-ParticipationType",
											"code": "PPRF",
											"display": "primary performer"
										}
									],
									"text": "primary performer"
								}
							},
							{
								"url": "http://hl7.org/fhir/StructureDefinition/event-performerFunction",
								"valueCodeableConcept": {
									"coding": [
										{
											"system": "http://terminology.hl7.org/CodeSystem/v3-ParticipationType",
											"code": "LA",
											"display": "legal authenticator"
										}
									],
									"text": "legal authenticator"
								}
							}
						],
						"reference": "Practitioner/8085737b-28ec-4b23-8604-83fd20076933"
					}
				],
				"valueDateTime": "2023-09-01T10:18:00-05:00"
			}
		},
		{
			"fullUrl": "http://example.org/fhir/Observation/f9dc78f0-a7f0-4c2e-93c6-aa77e1a303dd",
			"resource": {
				"resourceType": "Observation",
				"id": "f9dc78f0-a7f0-4c2e-93c6-aa77e1a303dd",
				"meta": {
					"profile": [
						"http://hl7.org/fhir/us/core/StructureDefinition/us-core-simple-observation"
					]
				},
				"text": {
					"status": "generated",
					"div": "<div xmlns=\"http://www.w3.org/1999/xhtml\">This is a simple narrative with only plain text</div>"
				},
				"identifier": [
					{
						"system": "https://fhir.cerner.com/ceuuid",
						"value": "CE87caf4b7-9397-4667-9897-702218017c9e-197323249-2023090115182000"
					}
				],
				"status": "final",
				"category": [
					{
						"extension": [
							{
								"url": "http://hl7.org/fhir/StructureDefinition/data-absent-reason",
								"valueCode": "unknown"
							}
						]
					}
				],
				"code": {
					"coding": [
						{
							"system": "https://fhir.cerner.com/e8a84236-c258-4952-98b7-a6ff8a9c587a/codeSet/72",
							"code": "27782121",
							"display": "Able to complete hearing test",
							"userSelected": true
						}
					],
					"text": "Able to complete hearing test"
				},
				"subject": {
					"reference": "Patient/f288c654-6885-4f48-999c-48d776dc06af"
				},
				"encounter": {
					"reference": "Encounter/7f613cae-d0e6-4e06-9026-4b4fef8273b6"
				},
				"effectiveDateTime": "2023-09-01T15:17:00.000Z",
				"issued": "2023-09-01T15:18:19.000Z",
				"performer": [
					{
						"extension": [
							{
								"url": "http://hl7.org/fhir/StructureDefinition/event-performerFunction",
								"valueCodeableConcept": {
									"coding": [
										{
											"system": "http://terminology.hl7.org/CodeSystem/v3-ParticipationType",
											"code": "PPRF",
											"display": "primary performer"
										}
									],
									"text": "primary performer"
								}
							},
							{
								"url": "http://hl7.org/fhir/StructureDefinition/event-performerFunction",
								"valueCodeableConcept": {
									"coding": [
										{
											"system": "http://terminology.hl7.org/CodeSystem/v3-ParticipationType",
											"code": "LA",
											"display": "legal authenticator"
										}
									],
									"text": "legal authenticator"
								}
							}
						],
						"reference": "Practitioner/8085737b-28ec-4b23-8604-83fd20076933"
					}
				],
				"valueCodeableConcept": {
					"coding": [
						{
							"system": "http://snomed.info/sct",
							"code": "373066001",
							"display": "Yes (qualifier value)",
							"userSelected": false
						}
					],
					"text": "Yes"
				}
			}
		},
		{
			"fullUrl": "http://example.org/fhir/Observation/e16f648b-725c-4740-acad-5c2bc3ae955a",
			"resource": {
				"resourceType": "Observation",
				"id": "e16f648b-725c-4740-acad-5c2bc3ae955a",
				"meta": {
					"profile": [
						"http://hl7.org/fhir/us/core/StructureDefinition/us-core-simple-observation"
					]
				},
				"text": {
					"status": "generated",
					"div": "<div xmlns=\"http://www.w3.org/1999/xhtml\">This is a simple narrative with only plain text</div>"
				},
				"identifier": [
					{
						"system": "https://fhir.cerner.com/ceuuid",
						"value": "CE87caf4b7-9397-4667-9897-702218017c9e-197323247-2023090115182000"
					}
				],
				"status": "final",
				"category": [
					{
						"extension": [
							{
								"url": "http://hl7.org/fhir/StructureDefinition/data-absent-reason",
								"valueCode": "unknown"
							}
						]
					}
				],
				"code": {
					"coding": [
						{
							"system": "https://fhir.cerner.com/e8a84236-c258-4952-98b7-a6ff8a9c587a/codeSet/72",
							"code": "18752019",
							"display": "Otoacoustic Emissions Result",
							"userSelected": true
						}
					],
					"text": "Otoacoustic Emissions Result"
				},
				"subject": {
					"reference": "Patient/f288c654-6885-4f48-999c-48d776dc06af"
				},
				"encounter": {
					"reference": "Encounter/7f613cae-d0e6-4e06-9026-4b4fef8273b6"
				},
				"effectiveDateTime": "2023-09-01T15:17:00.000Z",
				"issued": "2023-09-01T15:18:19.000Z",
				"performer": [
					{
						"extension": [
							{
								"url": "http://hl7.org/fhir/StructureDefinition/event-performerFunction",
								"valueCodeableConcept": {
									"coding": [
										{
											"system": "http://terminology.hl7.org/CodeSystem/v3-ParticipationType",
											"code": "PPRF",
											"display": "primary performer"
										}
									],
									"text": "primary performer"
								}
							},
							{
								"url": "http://hl7.org/fhir/StructureDefinition/event-performerFunction",
								"valueCodeableConcept": {
									"coding": [
										{
											"system": "http://terminology.hl7.org/CodeSystem/v3-ParticipationType",
											"code": "LA",
											"display": "legal authenticator"
										}
									],
									"text": "legal authenticator"
								}
							}
						],
						"reference": "Practitioner/8085737b-28ec-4b23-8604-83fd20076933"
					}
				],
				"component": [
					{
						"code": {
							"coding": [
								{
									"system": "https://fhir.cerner.com/e8a84236-c258-4952-98b7-a6ff8a9c587a/codeSet/72",
									"code": "18752019",
									"display": "Otoacoustic Emissions Result",
									"userSelected": true
								}
							],
							"text": "Otoacoustic Emissions Result"
						},
						"valueCodeableConcept": {
							"coding": [
								{
									"system": "http://loinc.org",
									"code": "LA10392-1",
									"userSelected": false
								}
							],
							"text": "Pass left"
						}
					},
					{
						"code": {
							"coding": [
								{
									"system": "https://fhir.cerner.com/e8a84236-c258-4952-98b7-a6ff8a9c587a/codeSet/72",
									"code": "18752019",
									"display": "Otoacoustic Emissions Result",
									"userSelected": true
								}
							],
							"text": "Otoacoustic Emissions Result"
						},
						"valueCodeableConcept": {
							"text": "Fail right"
						}
					}
				]
			}
		},
		{
			"fullUrl": "http://example.org/fhir/Observation/e56ccb10-890c-414d-9e19-3dfc22136b3c",
			"resource": {
				"resourceType": "Observation",
				"id": "e56ccb10-890c-414d-9e19-3dfc22136b3c",
				"meta": {
					"profile": [
						"http://hl7.org/fhir/us/core/StructureDefinition/us-core-simple-observation"
					]
				},
				"text": {
					"status": "generated",
					"div": "<div xmlns=\"http://www.w3.org/1999/xhtml\">This is a simple narrative with only plain text</div>"
				},
				"identifier": [
					{
						"system": "https://fhir.cerner.com/ceuuid",
						"value": "CE87caf4b7-9397-4667-9897-702218017c9e-197323245-2023090115182000"
					}
				],
				"status": "final",
				"category": [
					{
						"extension": [
							{
								"url": "http://hl7.org/fhir/StructureDefinition/data-absent-reason",
								"valueCode": "unknown"
							}
						]
					}
				],
				"code": {
					"coding": [
						{
							"system": "https://fhir.cerner.com/e8a84236-c258-4952-98b7-a6ff8a9c587a/codeSet/72",
							"code": "18752012",
							"display": "Newborn Hearing Test Type",
							"userSelected": true
						}
					],
					"text": "Newborn Hearing Test Type"
				},
				"subject": {
					"reference": "Patient/f288c654-6885-4f48-999c-48d776dc06af"
				},
				"encounter": {
					"reference": "Encounter/7f613cae-d0e6-4e06-9026-4b4fef8273b6"
				},
				"effectiveDateTime": "2023-09-01T15:17:00.000Z",
				"issued": "2023-09-01T15:18:19.000Z",
				"performer": [
					{
						"extension": [
							{
								"url": "http://hl7.org/fhir/StructureDefinition/event-performerFunction",
								"valueCodeableConcept": {
									"coding": [
										{
											"system": "http://terminology.hl7.org/CodeSystem/v3-ParticipationType",
											"code": "PPRF",
											"display": "primary performer"
										}
									],
									"text": "primary performer"
								}
							},
							{
								"url": "http://hl7.org/fhir/StructureDefinition/event-performerFunction",
								"valueCodeableConcept": {
									"coding": [
										{
											"system": "http://terminology.hl7.org/CodeSystem/v3-ParticipationType",
											"code": "LA",
											"display": "legal authenticator"
										}
									],
									"text": "legal authenticator"
								}
							}
						],
						"reference": "Practitioner/8085737b-28ec-4b23-8604-83fd20076933"
					}
				],
				"valueCodeableConcept": {
					"coding": [
						{
							"system": "http://snomed.info/sct",
							"code": "252623004",
							"display": "Oto-acoustic emission test (procedure)",
							"userSelected": false
						}
					],
					"text": "Otoacoustic emissions"
				}
			}
		},
		{
			"fullUrl": "http://example.org/fhir/Observation/bb44b956-bfa3-40a1-8898-7c8757b42c5f",
			"resource": {
				"resourceType": "Observation",
				"id": "bb44b956-bfa3-40a1-8898-7c8757b42c5f",
				"meta": {
					"profile": [
						"http://hl7.org/fhir/us/sdoh-clinicalcare/StructureDefinition/SDOHCC-ObservationScreeningResponse"
					]
				},
				"text": {
					"status": "generated",
					"div": "<div xmlns=\"http://www.w3.org/1999/xhtml\">This is a simple narrative with only plain text</div>"
				},
				"status": "final",
				"category": [
					{
						"coding": [
							{
								"system": "http://hl7.org/fhir/us/core/CodeSystem/us-core-category",
								"code": "sdoh",
								"display": "SDOH"
							}
						]
					},
					{
						"coding": [
							{
								"system": "http://terminology.hl7.org/CodeSystem/observation-category",
								"code": "social-history"
							}
						]
					},
					{
						"coding": [
							{
								"system": "http://terminology.hl7.org/CodeSystem/observation-category",
								"code": "survey",
								"display": "Survey"
							}
						]
					},
					{
						"coding": [
							{
								"system": "http://hl7.org/fhir/us/sdoh-clinicalcare/CodeSystem/SDOHCC-CodeSystemTemporaryCodes",
								"code": "homelessness",
								"display": "Homelessness"
							}
						]
					}
				],
				"code": {
					"coding": [
						{
							"system": "http://loinc.org",
							"code": "71802-3",
							"display": "Housing status"
						}
					]
				},
				"subject": {
					"reference": "Patient/f288c654-6885-4f48-999c-48d776dc06af",
					"display": "Hyper A Unlucky"
				},
				"effectiveDateTime": "2023-12-15T13:13:33-05:00",
				"issued": "2023-12-15T13:15:48-05:00",
				"performer": [
					{
						"reference": "Patient/f288c654-6885-4f48-999c-48d776dc06af",
						"display": "Hyper A Unlucky"
					}
				],
				"valueCodeableConcept": {
					"coding": [
						{
							"system": "http://loinc.org",
							"code": "LA30190-5",
							"display": "I do not have housing (staying with others, in a hotel, in a shelter, living outside on the street, on a beach, in a car, or in a park)"
						}
					]
				},
				"derivedFrom": [
					{
						"reference": "QuestionnaireResponse/b9715ab2-2a6c-4b8a-8c13-b19b3da5cd6e",
						"display": "SDOH Questionnaire"
					}
				]
			}
		},
		{
			"fullUrl": "http://example.org/fhir/Encounter/c84e5053-2231-4bd1-ad3a-6062a0684bc4",
			"resource": {
				"resourceType": "Encounter",
				"id": "c84e5053-2231-4bd1-ad3a-6062a0684bc4",
				"meta": {
					"profile": [
						"http://hl7.org/fhir/us/ph-library/StructureDefinition/us-ph-encounter"
					]
				},
				"text": {
					"status": "generated",
					"div": "<div xmlns=\"http://www.w3.org/1999/xhtml\">This is a simple narrative with only plain text</div>"
				},
				"status": "in-progress",
				"class": {
					"system": "http://terminology.hl7.org/CodeSystem/service-type",
					"code": "441",
					"display": "Sexually Transmitted"
				},
				"type": [
					{
						"coding": [
							{
								"system": "http://www.ama-assn.org/go/cpt",
								"code": "99202"
							}
						],
						"text": "Office Visit"
					}
				],
				"subject": {
					"reference": "Patient/f288c654-6885-4f48-999c-48d776dc06af",
					"type": "Patient"
				},
				"participant": [
					{
						"period": {
							"start": "2000-03-02",
							"end": "2024-03-03"
						},
						"individual": {
							"reference": "Practitioner/8085737b-28ec-4b23-8604-83fd20076933",
							"type": "Practitioner"
						}
					}
				],
				"period": {
					"start": "2000-04-01",
					"end": "2000-05-01"
				},
				"reasonCode": [
					{
						"coding": [
							{
								"system": "http://snomed.info/sct",
								"code": "2339001",
								"display": "Sexual overexposure"
							}
						],
						"text": "Sexual overexposure"
					}
				],
				"location": [
					{
						"location": {
							"reference": "Location/d1636409-8269-4758-9130-20daf48d02f6",
							"display": "Clinic Bldg A, Salem Medical Center, 4444 Healthcare Drive, Ann Arbor MI, 99999"
						}
					},
					{
						"location": {
							"reference": "Location/d1636409-8269-4758-9130-20daf48d02f6",
							"display": "Clinic Bldg A, Salem Medical Center, 4444 Healthcare Drive, Ann Arbor MI, 99999"
						}
					}
				]
			}
		},
		{
			"fullUrl": "http://example.org/fhir/Encounter/22b3486d-269e-43b0-bfa9-2aaac9d92050",
			"resource": {
				"resourceType": "Encounter",
				"id": "22b3486d-269e-43b0-bfa9-2aaac9d92050",
				"meta": {
					"profile": [
						"http://hl7.org/fhir/us/ph-library/StructureDefinition/us-ph-encounter"
					]
				},
				"text": {
					"status": "generated",
					"div": "<div xmlns=\"http://www.w3.org/1999/xhtml\">This is a simple narrative with only plain text</div>"
				},
				"status": "in-progress",
				"class": {
					"system": "http://terminology.hl7.org/CodeSystem/service-type",
					"code": "441",
					"display": "Sexually Transmitted"
				},
				"type": [
					{
						"coding": [
							{
								"system": "http://www.ama-assn.org/go/cpt",
								"code": "99202"
							}
						],
						"text": "Office Visit"
					}
				],
				"subject": {
					"reference": "Patient/f288c654-6885-4f48-999c-48d776dc06af",
					"type": "Patient"
				},
				"participant": [
					{
						"period": {
							"start": "2000-03-02",
							"end": "2024-05-03"
						},
						"individual": {
							"reference": "Practitioner/8085737b-28ec-4b23-8604-83fd20076933",
							"type": "Practitioner"
						}
					}
				],
				"period": {
					"start": "2000-01-01",
					"end": "2000-02-01"
				},
				"reasonCode": [
					{
						"coding": [
							{
								"system": "http://snomed.info/sct",
								"code": "2339001",
								"display": "Sexual overexposure"
							}
						],
						"text": "Sexual overexposure"
					}
				],
				"location": [
					{
						"location": {
							"reference": "Location/d1636409-8269-4758-9130-20daf48d02f6",
							"display": "Clinic Bldg A, Salem Medical Center, 4444 Healthcare Drive, Ann Arbor MI, 99999"
						}
					},
					{
						"location": {
							"reference": "Location/d1636409-8269-4758-9130-20daf48d02f6",
							"display": "Clinic Bldg A, Salem Medical Center, 4444 Healthcare Drive, Ann Arbor MI, 99999"
						}
					}
				]
			}
		},
		{
			"fullUrl": "http://example.org/fhir/Observation/c823b418-8e0a-456f-b1a1-48fde4a8103d",
			"resource": {
				"resourceType": "Observation",
				"id": "c823b418-8e0a-456f-b1a1-48fde4a8103d",
				"meta": {
					"profile": [
						"http://hl7.org/fhir/us/ph-library/StructureDefinition/us-ph-chief-complaint-observation"
					]
				},
				"text": {
					"status": "generated",
					"div": "<div xmlns=\"http://www.w3.org/1999/xhtml\">This is a simple narrative with only plain text</div>"
				},
				"status": "final",
				"category": [
					{
						"coding": [
							{
								"system": "http://terminology.hl7.org/CodeSystem/observation-category",
								"code": "exam",
								"display": "Exam"
							}
						]
					}
				],
				"code": {
					"coding": [
						{
							"system": "http://loinc.org",
							"code": "10154-3",
							"display": "Chief complaint Narrative - Reported"
						}
					]
				},
				"subject": {
					"reference": "Patient/f288c654-6885-4f48-999c-48d776dc06af",
					"type": "Patient"
				},
				"effectiveDateTime": "2023-03-10T22:33:22Z",
				"performer": [
					{
						"reference": "Practitioner/8085737b-28ec-4b23-8604-83fd20076933",
						"display": "Practitioner"
					}
				],
				"valueString": "Blurred vision and a bad headache."
			}
		},
		{
			"fullUrl": "http://example.org/fhir/Observation/85a13bb4-de62-4ea1-be80-9525fe3c3ef6",
			"resource": {
				"resourceType": "Observation",
				"id": "85a13bb4-de62-4ea1-be80-9525fe3c3ef6",
				"meta": {
					"profile": [
						"http://hl7.org/fhir/us/ph-library/StructureDefinition/us-ph-country-of-nationality"
					]
				},
				"text": {
					"status": "generated",
					"div": "<div xmlns=\"http://www.w3.org/1999/xhtml\">This is a simple narrative with only plain text</div>"
				},
				"status": "final",
				"category": [
					{
						"coding": [
							{
								"system": "http://terminology.hl7.org/CodeSystem/observation-category",
								"code": "social-history",
								"display": "Social History"
							}
						]
					}
				],
				"code": {
					"coding": [
						{
							"system": "http://snomed.info/sct",
							"code": "186034007",
							"display": "Ethnicity / related nationality data (observable entity)"
						}
					]
				},
				"subject": {
					"reference": "Patient/f288c654-6885-4f48-999c-48d776dc06af",
					"type": "Patient"
				},
				"effectiveDateTime": "2023-03-10T22:33:22Z",
				"performer": [
					{
						"reference": "Practitioner/8085737b-28ec-4b23-8604-83fd20076933",
						"display": "Practitioner"
					}
				],
				"valueCodeableConcept": {
					"coding": [
						{
							"system": "urn:iso:std:iso:3166",
							"code": "AU",
							"display": "Australia"
						}
					]
				}
			}
		},
		{
			"fullUrl": "http://example.org/fhir/Observation/16c7f34b-fb92-4ecf-b6c9-d032be5c2a53",
			"resource": {
				"resourceType": "Observation",
				"id": "16c7f34b-fb92-4ecf-b6c9-d032be5c2a53",
				"meta": {
					"profile": [
						"http://hl7.org/fhir/us/ph-library/StructureDefinition/us-ph-symptom-observation"
					]
				},
				"text": {
					"status": "generated",
					"div": "<div xmlns=\"http://www.w3.org/1999/xhtml\">This is a simple narrative with only plain text</div>"
				},
				"status": "final",
				"category": [
					{
						"coding": [
							{
								"system": "http://terminology.hl7.org/CodeSystem/observation-category",
								"code": "exam",
								"display": "Exam"
							}
						]
					}
				],
				"code": {
					"coding": [
						{
							"system": "http://loinc.org",
							"code": "75325-1",
							"display": "Symptom"
						}
					]
				},
				"subject": {
					"reference": "Patient/f288c654-6885-4f48-999c-48d776dc06af",
					"type": "Patient"
				},
				"effectiveDateTime": "2025-03-10T22:33:22Z",
				"performer": [
					{
						"reference": "Practitioner/8085737b-28ec-4b23-8604-83fd20076933",
						"display": "Practitioner"
					}
				],
				"valueCodeableConcept": {
					"coding": [
						{
							"system": "http://snomed.info/sct",
							"code": "25064002",
							"display": "Headache (finding)"
						}
					]
				}
			}
		},
		{
			"fullUrl": "http://example.org/fhir/Observation/87c2eb4e-e9e1-46ec-934f-d318d3195e48",
			"resource": {
				"resourceType": "Observation",
				"id": "87c2eb4e-e9e1-46ec-934f-d318d3195e48",
				"meta": {
					"profile": [
						"http://hl7.org/fhir/us/ph-library/StructureDefinition/us-ph-vaccine-credential-patient-assertion"
					]
				},
				"text": {
					"status": "generated",
					"div": "<div xmlns=\"http://www.w3.org/1999/xhtml\">This is a simple narrative with only plain text</div>"
				},
				"status": "final",
				"category": [
					{
						"coding": [
							{
								"system": "http://terminology.hl7.org/CodeSystem/observation-category",
								"code": "social-history"
							}
						]
					}
				],
				"code": {
					"coding": [
						{
							"system": "http://loinc.org",
							"code": "11370-4",
							"display": "Immunization status - Reported"
						}
					]
				},
				"subject": {
					"reference": "Patient/f288c654-6885-4f48-999c-48d776dc06af",
					"type": "Patient"
				},
				"effectiveDateTime": "2025-03-10T22:33:22Z",
				"performer": [
					{
						"reference": "Practitioner/8085737b-28ec-4b23-8604-83fd20076933",
						"display": "Practitioner"
					}
				],
				"valueCodeableConcept": {
					"coding": [
						{
							"system": "http://terminology.hl7.org/CodeSystem/v2-0532",
							"code": "Y",
							"display": "Yes"
						}
					]
				}
			}
		},
		{
			"fullUrl": "http://example.org/fhir/Observation/1ec9f1a7-542e-4f98-b5ae-c8f248e687df",
			"resource": {
				"resourceType": "Observation",
				"id": "1ec9f1a7-542e-4f98-b5ae-c8f248e687df",
				"meta": {
					"profile": [
						"http://hl7.org/fhir/us/ph-library/StructureDefinition/us-ph-characteristics-of-home-environment"
					]
				},
				"text": {
					"status": "generated",
					"div": "<div xmlns=\"http://www.w3.org/1999/xhtml\">This is a simple narrative with only plain text</div>"
				},
				"status": "final",
				"category": [
					{
						"coding": [
							{
								"system": "http://hl7.org/fhir/us/core/CodeSystem/us-core-category",
								"code": "sdoh"
							}
						]
					}
				],
				"code": {
					"coding": [
						{
							"system": "http://loinc.org",
							"code": "75274-1",
							"display": "Characteristics of residence"
						}
					]
				},
				"subject": {
					"reference": "Patient/f288c654-6885-4f48-999c-48d776dc06af",
					"type": "Patient"
				},
				"effectiveDateTime": "2025-03-10T22:33:22Z",
				"performer": [
					{
						"reference": "PractitionerRole/6baea747-1303-4209-bd78-514ce7917bf6",
						"display": "Dr US Core"
					}
				],
				"valueCodeableConcept": {
					"coding": [
						{
							"system": "http://snomed.info/sct",
							"code": "32911000",
							"display": "Homeless"
						}
					]
				}
			}
		}
	]
}