{
	"resourceType": "Bundle",
	"id": "a79db9d4-5b3e-4fe9-977e-e18b347f19c9",
	"meta": {
		"profile": [
			"http://hl7.org/fhir/us/ph-library/StructureDefinition/us-ph-content-bundle"
		]
	},
	"type": "collection",
	"entry": [
		{
			"fullUrl": "http://example.org/Patient/d5eb8ca7-c86e-4c66-aac0-08232e489b34",
			"resource": {
				"resourceType": "Patient",
				"id": "d5eb8ca7-c86e-4c66-aac0-08232e489b34",
				"meta": {
					"profile": [
						"http://hl7.org/fhir/us/ph-library/StructureDefinition/us-ph-patient"
					]
				},
				"text": {
					"status": "generated",
					"div": "<div xmlns=\"http://www.w3.org/1999/xhtml\">This is a simple narrative with only plain text</div>"
				},
				"extension": [
					{
						"extension": [
							{
								"url": "ombCategory",
								"valueCoding": {
									"system": "urn:oid:2.16.840.1.113883.6.238",
									"code": "2106-3",
									"display": "White"
								}
							},
							{
								"url": "text",
								"valueString": "White"
							}
						],
						"url": "http://hl7.org/fhir/us/core/StructureDefinition/us-core-race"
					},
					{
						"extension": [
							{
								"url": "ombCategory",
								"valueCoding": {
									"system": "urn:oid:2.16.840.1.113883.6.238",
									"code": "2135-2",
									"display": "Hispanic or Latino"
								}
							},
							{
								"url": "text",
								"valueString": "Hispanic or Latino"
							}
						],
						"url": "http://hl7.org/fhir/us/core/StructureDefinition/us-core-ethnicity"
					}
				],
				"identifier": [
					{
						"use": "usual",
						"type": {
							"coding": [
								{
									"system": "http://terminology.hl7.org/CodeSystem/v2-0203",
									"code": "MR",
									"display": "Medical Record Number"
								}
							],
							"text": "Medical Record Number"
						},
						"system": "http://hospital.smarthealthit.org",
						"value": "639660"
					}
				],
				"name": [
					{
						"use": "official",
						"family": "Hudson",
						"given": [
							"Lynda",
							"I"
						]
					}
				],
				"telecom": [
					{
						"system": "phone",
						"value": "517-425-1399",
						"use": "home"
					}
				],
				"gender": "female",
				"birthDate": "2005-04-09",
				"deceasedBoolean": false,
				"address": [
					{
						"use": "home",
						"line": [
							"389 Rivera Highway Suite 985"
						],
						"city": "Danielhaven",
						"state": "NV",
						"country": "US"
					}
				],
				"communication": [
					{
						"language": {
							"coding": [
								{
									"system": "urn:ietf:bcp:47",
									"code": "en",
									"display": "English"
								}
							]
						}
					}
				]
			}
		},
		{
			"fullUrl": "http://example.org/Observation/c13fa7cc-91c1-4560-a212-943ed422bdc2",
			"resource": {
				"resourceType": "Observation",
				"id": "c13fa7cc-91c1-4560-a212-943ed422bdc2",
				"meta": {
					"profile": [
						"http://hl7.org/fhir/us/core/StructureDefinition/us-core-smokingstatus"
					]
				},
				"text": {
					"status": "generated",
					"div": "<div xmlns=\"http://www.w3.org/1999/xhtml\">This is a simple narrative with only plain text</div>"
				},
				"status": "final",
				"category": [
					{
						"coding": [
							{
								"system": "http://terminology.hl7.org/CodeSystem/observation-category",
								"code": "social-history",
								"display": "Social History"
							}
						]
					}
				],
				"code": {
					"coding": [
						{
							"system": "http://loinc.org",
							"code": "72166-2",
							"display": "Tobacco smoking status"
						}
					],
					"text": "Tobacco smoking status"
				},
				"subject": {
					"reference": "Patient/d5eb8ca7-c86e-4c66-aac0-08232e489b34"
				},
				"effectiveDateTime": "2024-09-03T03:55:17.472312+00:00",
				"performer": [
					{
						"reference": "Practitioner/bf7f447b-027c-4972-bb67-12f8ae87b5f8",
						"display": "Practitioner"
					}
				],
				"valueCodeableConcept": {
					"coding": [
						{
							"system": "http://snomed.info/sct",
							"code": "56771006",
							"display": "Heavy smoker (over 20 per day) (finding)"
						}
					],
					"text": "Heavy smoker (over 20 per day) (finding)"
				}
			}
		},
		{
			"fullUrl": "http://example.org/Practitioner/bf7f447b-027c-4972-bb67-12f8ae87b5f8",
			"resource": {
				"resourceType": "Practitioner",
				"id": "bf7f447b-027c-4972-bb67-12f8ae87b5f8",
				"meta": {
					"profile": [
						"http://hl7.org/fhir/us/core/StructureDefinition/us-core-practitioner"
					]
				},
				"text": {
					"status": "generated",
					"div": "<div xmlns=\"http://www.w3.org/1999/xhtml\">This is a simple narrative with only plain text</div>"
				},
				"identifier": [
					{
						"system": "http://hl7.org/fhir/sid/us-npi",
						"value": "1043381841"
					}
				],
				"name": [
					{
						"use": "official",
						"family": "Sandoval",
						"given": [
							"William"
						]
					}
				]
			}
		},
		{
			"fullUrl": "http://example.org/Organization/e3b4a860-e480-44eb-ae93-c4ea2f99067c",
			"resource": {
				"resourceType": "Organization",
				"id": "e3b4a860-e480-44eb-ae93-c4ea2f99067c",
				"meta": {
					"profile": [
						"http://hl7.org/fhir/us/ph-library/StructureDefinition/us-ph-organization"
					]
				},
				"text": {
					"status": "generated",
					"div": "<div xmlns=\"http://www.w3.org/1999/xhtml\">This is a simple narrative with only plain text</div>"
				},
				"active": true,
				"name": "Hospital I",
				"telecom": [
					{
						"system": "phone",
						"value": "(+1) 734-677-7777"
					}
				],
				"address": [
					{
						"use": "work",
						"line": [
							"34503 Walker Tunnel Apt. 922"
						],
						"state": "NV",
						"country": "US"
					}
				]
			}
		},
		{
			"fullUrl": "http://example.org/Encounter/a5f91988-a45e-49bf-b562-c49b86ec7c04",
			"resource": {
				"resourceType": "Encounter",
				"id": "a5f91988-a45e-49bf-b562-c49b86ec7c04",
				"meta": {
					"profile": [
						"http://hl7.org/fhir/us/ph-library/StructureDefinition/us-ph-encounter"
					]
				},
				"text": {
					"status": "generated",
					"div": "<div xmlns=\"http://www.w3.org/1999/xhtml\">This is a simple narrative with only plain text</div>"
				},
				"status": "finished",
				"class": {
					"system": "http://terminology.hl7.org/CodeSystem/v3-ActCode",
					"code": "AMB",
					"display": "ambulatory"
				},
				"type": [
					{
						"coding": [
							{
								"system": "http://www.ama-assn.org/go/cpt",
								"code": "99213",
								"display": "Office or other outpatient visit for the evaluation and management of an established patient, which requires a medically appropriate history and/or examination and low level of medical decision making. When using time for code selection, 20-29 minutes of total time is spent on the date of the encounter."
							}
						],
						"text": "Office Visit"
					}
				],
				"subject": {
					"reference": "Patient/d5eb8ca7-c86e-4c66-aac0-08232e489b34"
				},
				"participant": [
					{
						"individual": {
							"reference": "Practitioner/bf7f447b-027c-4972-bb67-12f8ae87b5f8"
						}
					}
				],
				"period": {
					"start": "2024-04-17T01:52:20-04:00",
					"end": "2024-06-18T13:29:03-04:00"
				},
				"location": [
					{
						"location": {
							"reference": "Location/d1636409-8269-4758-9130-20daf48d02f6",
							"display": "Clinic Bldg A, Salem Medical Center, 4444 Healthcare Drive, Ann Arbor MI, 99999"
						}
					}
				],
				"serviceProvider": {
					"reference": "Organization/e3b4a860-e480-44eb-ae93-c4ea2f99067c"
				}
			}
		},
		{
			"fullUrl": "http://example.org/Location/d1636409-8269-4758-9130-20daf48d02f1",
			"resource": {
				"resourceType": "Location",
				"id": "d1636409-8269-4758-9130-20daf48d02f1",
				"meta": {
					"profile": [
						"http://hl7.org/fhir/us/ph-library/StructureDefinition/us-ph-location"
					]
				},
				"text": {
					"status": "generated",
					"div": "<div xmlns=\"http://www.w3.org/1999/xhtml\">This is a simple narrative with only plain text</div>"
				},
				"identifier": [
					{
						"system": "http://hl7.org/fhir/sid/us-npi",
						"value": "1063494177"
					}
				],
				"status": "active",
				"name": "Clinic Bldg A, Salem Medical Center",
				"type": [
					{
						"coding": [
							{
								"system": "http://terminology.hl7.org/CodeSystem/v3-RoleCode",
								"code": "HOSP",
								"display": "Hospital"
							}
						]
					}
				],
				"telecom": [
					{
						"system": "phone",
						"value": "(+1) (555)555-3001"
					},
					{
						"system": "fax",
						"value": "(+1) (555)555-3002"
					},
					{
						"system": "email",
						"value": "mail@smc.org"
					}
				],
				"address": {
					"line": [
						"Clinic Bldg A",
						"4444 Healthcare Drive"
					],
					"city": "Ann Arbor",
					"state": "MI",
					"postalCode": "99999"
				},
				"managingOrganization": {
					"reference": "Organization/e3b4a860-e480-44eb-ae93-c4ea2f99067c"
				}
			}
		},
		{
			"fullUrl": "http://example.org/Condition/1ff7b0e6-8aef-4825-bb17-894a501f2fd9",
			"resource": {
				"resourceType": "Condition",
				"id": "1ff7b0e6-8aef-4825-bb17-894a501f2fd9",
				"meta": {
					"profile": [
						"http://hl7.org/fhir/us/ph-library/StructureDefinition/us-ph-condition-encounter-diagnosis"
					]
				},
				"text": {
					"status": "generated",
					"div": "<div xmlns=\"http://www.w3.org/1999/xhtml\">This is a simple narrative with only plain text</div>"
				},
				"clinicalStatus": {
					"coding": [
						{
							"system": "http://terminology.hl7.org/CodeSystem/condition-clinical",
							"code": "active",
							"display": "Active"
						}
					]
				},
				"verificationStatus": {
					"coding": [
						{
							"system": "http://terminology.hl7.org/CodeSystem/condition-ver-status",
							"code": "confirmed",
							"display": "Confirmed"
						}
					]
				},
				"category": [
					{
						"coding": [
							{
								"system": "http://terminology.hl7.org/CodeSystem/condition-category",
								"code": "encounter-diagnosis",
								"display": "Encounter Diagnosis"
							}
						]
					}
				],
				"code": {
					"coding": [
						{
							"system": "http://hl7.org/fhir/sid/icd-10-cm",
							"code": "A54.03",
							"display": "Gonococcal cervicitis, unspecified"
						}
					],
					"text": "Gonococcal cervicitis, unspecified"
				},
				"subject": {
					"reference": "Patient/d5eb8ca7-c86e-4c66-aac0-08232e489b34"
				},
				"encounter": {
					"reference": "Encounter/a5f91988-a45e-49bf-b562-c49b86ec7c04"
				},
				"recordedDate": "2024-04-01T15:18:27-04:00"
			}
		},
		{
			"fullUrl": "http://example.org/MedicationRequest/54b63351-7605-407e-8f32-9dd22653e6a5",
			"resource": {
				"resourceType": "MedicationRequest",
				"id": "54b63351-7605-407e-8f32-9dd22653e6a5",
				"meta": {
					"profile": [
						"http://hl7.org/fhir/us/core/StructureDefinition/us-core-medicationrequest"
					]
				},
				"text": {
					"status": "generated",
					"div": "<div xmlns=\"http://www.w3.org/1999/xhtml\">This is a simple narrative with only plain text</div>"
				},
				"status": "completed",
				"intent": "order",
				"medicationCodeableConcept": {
					"coding": [
						{
							"system": "http://www.nlm.nih.gov/research/umls/rxnorm",
							"code": "309090",
							"display": "ceftriaxone 100 MG/ML Injectable Solution"
						}
					],
					"text": "ceftriaxone 100 MG/ML Injectable Solution"
				},
				"subject": {
					"reference": "Patient/d5eb8ca7-c86e-4c66-aac0-08232e489b34"
				},
				"encounter": {
					"reference": "Encounter/a5f91988-a45e-49bf-b562-c49b86ec7c04"
				},
				"authoredOn": "2024-05-06T07:23:00-04:00",
				"requester": {
					"reference": "Practitioner/bf7f447b-027c-4972-bb67-12f8ae87b5f8"
				},
				"reasonCode": [
					{
						"coding": [
							{
								"system": "http://hl7.org/fhir/sid/icd-10-cm",
								"code": "A54.03",
								"display": "Gonococcal cervicitis, unspecified"
							}
						],
						"text": "Gonococcal cervicitis, unspecified"
					},
					{
						"coding": [
							{
								"system": "http://snomed.info/sct",
								"code": "236682002",
								"display": "Gonococcal urethritis"
							}
						],
						"text": "Gonococcal urethritis"
					}
				],
				"reasonReference": [
					{
						"reference": "Condition/1ff7b0e6-8aef-4825-bb17-894a501f2fd9"
					}
				],
				"dosageInstruction": [
					{
						"text": "IM 500mg/single dose"
					}
				]
			}
		},
		{
			"fullUrl": "http://example.org/Specimen/8a4f8cca-abb2-4e39-af48-8e2b641d3d6c",
			"resource": {
				"resourceType": "Specimen",
				"id": "8a4f8cca-abb2-4e39-af48-8e2b641d3d6c",
				"meta": {
					"profile": [
						"http://hl7.org/fhir/us/ph-library/StructureDefinition/us-ph-specimen"
					]
				},
				"text": {
					"status": "generated",
					"div": "<div xmlns=\"http://www.w3.org/1999/xhtml\">This is a simple narrative with only plain text</div>"
				},
				"type": {
					"coding": [
						{
							"system": "http://terminology.hl7.org/CodeSystem/v2-0487",
							"code": "GENV",
							"display": "Genital vaginal"
						}
					]
				},
				"subject": {
					"reference": "Patient/d5eb8ca7-c86e-4c66-aac0-08232e489b34"
				}
			}
		},
		{
			"fullUrl": "http://example.org/Observation/df65e52b-a0a6-48da-ba2c-b03f1f46abab",
			"resource": {
				"resourceType": "Observation",
				"id": "df65e52b-a0a6-48da-ba2c-b03f1f46abab",
				"meta": {
					"profile": [
						"http://hl7.org/fhir/us/ph-library/StructureDefinition/us-ph-lab-result-observation"
					]
				},
				"text": {
					"status": "generated",
					"div": "<div xmlns=\"http://www.w3.org/1999/xhtml\">This is a simple narrative with only plain text</div>"
				},
				"status": "final",
				"category": [
					{
						"coding": [
							{
								"system": "http://terminology.hl7.org/CodeSystem/observation-category",
								"code": "laboratory",
								"display": "Laboratory"
							}
						]
					}
				],
				"code": {
					"coding": [
						{
							"system": "http://loinc.org",
							"code": "21415-5",
							"display": "Neisseria gonorrhoeae DNA [Presence] in Urethra by NAA with probe detection"
						}
					]
				},
				"subject": {
					"reference": "Patient/d5eb8ca7-c86e-4c66-aac0-08232e489b34"
				},
				"encounter": {
					"reference": "Encounter/a5f91988-a45e-49bf-b562-c49b86ec7c04"
				},
				"effectiveDateTime": "2024-07-08",
				"performer": [
					{
						"reference": "Practitioner/bf7f447b-027c-4972-bb67-12f8ae87b5f8",
						"display": "Practitioner"
					}
				],
				"valueCodeableConcept": {
					"coding": [
						{
							"system": "http://snomed.info/sct",
							"code": "260373001",
							"display": "Detected"
						}
					]
				},
				"interpretation": [
					{
						"coding": [
							{
								"system": "http://terminology.hl7.org/CodeSystem/v3-ObservationInterpretation",
								"code": "POS",
								"display": "Positive"
							}
						]
					}
				],
				"specimen": {
					"reference": "Specimen/8a4f8cca-abb2-4e39-af48-8e2b641d3d6c"
				}
			}
		},
		{
			"fullUrl": "http://example.org/Observation/d3ff8f7a-2da8-41ff-9151-1084a9eab9fa",
			"resource": {
				"resourceType": "Observation",
				"id": "d3ff8f7a-2da8-41ff-9151-1084a9eab9fa",
				"meta": {
					"profile": [
						"http://hl7.org/fhir/us/ph-library/StructureDefinition/us-ph-pregnancy-status-observation"
					]
				},
				"text": {
					"status": "generated",
					"div": "<div xmlns=\"http://www.w3.org/1999/xhtml\">This is a simple narrative with only plain text</div>"
				},
				"status": "final",
				"category": [
					{
						"coding": [
							{
								"system": "http://terminology.hl7.org/CodeSystem/observation-category",
								"code": "social-history",
								"display": "Social History"
							}
						]
					}
				],
				"code": {
					"coding": [
						{
							"system": "http://loinc.org",
							"code": "82810-3",
							"display": "Pregnancy status"
						}
					],
					"text": "Pregnancy status"
				},
				"subject": {
					"reference": "Patient/d5eb8ca7-c86e-4c66-aac0-08232e489b34"
				},
				"effectiveDateTime": "2024-09-03T03:55:17.474491+00:00",
				"performer": [
					{
						"reference": "Practitioner/bf7f447b-027c-4972-bb67-12f8ae87b5f8",
						"display": "Practitioner"
					}
				],
				"valueCodeableConcept": {
					"coding": [
						{
							"system": "http://snomed.info/sct",
							"code": "60001007",
							"display": "Not pregnant (finding)"
						}
					],
					"text": "Not pregnant (finding)"
				}
			}
		}
	]
}