{
	"resourceType": "Bundle",
	"id": "88bc90e1-19cc-43b3-a93b-600d6d5951d0",
	"meta": {
		"profile": [
			"http://hl7.org/fhir/us/ph-library/StructureDefinition/us-ph-content-bundle"
		]
	},
	"type": "collection",
	"entry": [
		{
			"fullUrl": "http://example.org/Patient/14cc535b-6d38-440c-8f0b-4fb2f60b6d43",
			"resource": {
				"resourceType": "Patient",
				"id": "14cc535b-6d38-440c-8f0b-4fb2f60b6d43",
				"meta": {
					"profile": [
						"http://hl7.org/fhir/us/ph-library/StructureDefinition/us-ph-patient"
					]
				},
				"text": {
					"status": "generated",
					"div": "<div xmlns=\"http://www.w3.org/1999/xhtml\">This is a simple narrative with only plain text</div>"
				},
				"extension": [
					{
						"extension": [
							{
								"url": "ombCategory",
								"valueCoding": {
									"system": "urn:oid:2.16.840.1.113883.6.238",
									"code": "2028-9",
									"display": "Asian"
								}
							},
							{
								"url": "text",
								"valueString": "Asian"
							}
						],
						"url": "http://hl7.org/fhir/us/core/StructureDefinition/us-core-race"
					},
					{
						"extension": [
							{
								"url": "ombCategory",
								"valueCoding": {
									"system": "urn:oid:2.16.840.1.113883.6.238",
									"code": "2186-5",
									"display": "Not Hispanic or Latino"
								}
							},
							{
								"url": "text",
								"valueString": "Not Hispanic or Latino"
							}
						],
						"url": "http://hl7.org/fhir/us/core/StructureDefinition/us-core-ethnicity"
					}
				],
				"identifier": [
					{
						"use": "usual",
						"type": {
							"coding": [
								{
									"system": "http://terminology.hl7.org/CodeSystem/v2-0203",
									"code": "MR",
									"display": "Medical Record Number"
								}
							],
							"text": "Medical Record Number"
						},
						"system": "http://hospital.smarthealthit.org",
						"value": "391861"
					}
				],
				"name": [
					{
						"use": "official",
						"family": "Hunt",
						"given": [
							"Leslie",
							"O"
						]
					}
				],
				"telecom": [
					{
						"system": "phone",
						"value": "517-425-1399",
						"use": "home"
					}
				],
				"gender": "female",
				"birthDate": "1992-11-21",
				"deceasedBoolean": false,
				"address": [
					{
						"use": "home",
						"line": [
							"666 Smith Lodge"
						],
						"city": "Allenfurt",
						"state": "MA",
						"country": "US"
					}
				],
				"communication": [
					{
						"language": {
							"coding": [
								{
									"system": "urn:ietf:bcp:47",
									"code": "en",
									"display": "English"
								}
							]
						}
					}
				]
			}
		},
		{
			"fullUrl": "http://example.org/Observation/13414266-b25f-40d5-804d-7e3792a8ccda",
			"resource": {
				"resourceType": "Observation",
				"id": "13414266-b25f-40d5-804d-7e3792a8ccda",
				"meta": {
					"profile": [
						"http://hl7.org/fhir/us/core/StructureDefinition/us-core-smokingstatus"
					]
				},
				"text": {
					"status": "generated",
					"div": "<div xmlns=\"http://www.w3.org/1999/xhtml\">This is a simple narrative with only plain text</div>"
				},
				"status": "final",
				"category": [
					{
						"coding": [
							{
								"system": "http://terminology.hl7.org/CodeSystem/observation-category",
								"code": "social-history",
								"display": "Social History"
							}
						]
					}
				],
				"code": {
					"coding": [
						{
							"system": "http://loinc.org",
							"code": "72166-2",
							"display": "Tobacco smoking status"
						}
					],
					"text": "Tobacco smoking status"
				},
				"subject": {
					"reference": "Patient/14cc535b-6d38-440c-8f0b-4fb2f60b6d43"
				},
				"effectiveDateTime": "2024-09-03T03:55:24.469610+00:00",
				"performer": [
					{
						"reference": "Practitioner/c0041547-2e91-4536-8d30-3c7313b7b851",
						"display": "Practitioner"
					}
				],
				"valueCodeableConcept": {
					"coding": [
						{
							"system": "http://snomed.info/sct",
							"code": "8392000",
							"display": "Non-smoker (finding)"
						}
					],
					"text": "Non-smoker (finding)"
				}
			}
		},
		{
			"fullUrl": "http://example.org/Practitioner/c0041547-2e91-4536-8d30-3c7313b7b851",
			"resource": {
				"resourceType": "Practitioner",
				"id": "c0041547-2e91-4536-8d30-3c7313b7b851",
				"meta": {
					"profile": [
						"http://hl7.org/fhir/us/core/StructureDefinition/us-core-practitioner"
					]
				},
				"text": {
					"status": "generated",
					"div": "<div xmlns=\"http://www.w3.org/1999/xhtml\">This is a simple narrative with only plain text</div>"
				},
				"identifier": [
					{
						"system": "http://hl7.org/fhir/sid/us-npi",
						"value": "2577061874"
					}
				],
				"name": [
					{
						"use": "official",
						"family": "Mueller",
						"given": [
							"Julie"
						]
					}
				]
			}
		},
		{
			"fullUrl": "http://example.org/Organization/a345ff5d-25f7-49c1-b0ae-005b6de75b22",
			"resource": {
				"resourceType": "Organization",
				"id": "a345ff5d-25f7-49c1-b0ae-005b6de75b22",
				"meta": {
					"profile": [
						"http://hl7.org/fhir/us/ph-library/StructureDefinition/us-ph-organization"
					]
				},
				"text": {
					"status": "generated",
					"div": "<div xmlns=\"http://www.w3.org/1999/xhtml\">This is a simple narrative with only plain text</div>"
				},
				"active": true,
				"name": "Hospital M",
				"telecom": [
					{
						"system": "phone",
						"value": "(+1) 734-677-7777"
					}
				],
				"address": [
					{
						"use": "work",
						"line": [
							"5969 James Cliff"
						],
						"state": "MA",
						"country": "US"
					}
				]
			}
		},
		{
			"fullUrl": "http://example.org/Encounter/d47df08c-63b0-4e89-84e0-c290f2a2e8ef",
			"resource": {
				"resourceType": "Encounter",
				"id": "d47df08c-63b0-4e89-84e0-c290f2a2e8ef",
				"meta": {
					"profile": [
						"http://hl7.org/fhir/us/ph-library/StructureDefinition/us-ph-encounter"
					]
				},
				"text": {
					"status": "generated",
					"div": "<div xmlns=\"http://www.w3.org/1999/xhtml\">This is a simple narrative with only plain text</div>"
				},
				"status": "finished",
				"class": {
					"system": "http://terminology.hl7.org/CodeSystem/v3-ActCode",
					"code": "AMB",
					"display": "ambulatory"
				},
				"type": [
					{
						"coding": [
							{
								"system": "http://www.ama-assn.org/go/cpt",
								"code": "99213",
								"display": "Office or other outpatient visit for the evaluation and management of an established patient, which requires a medically appropriate history and/or examination and low level of medical decision making. When using time for code selection, 20-29 minutes of total time is spent on the date of the encounter."
							}
						],
						"text": "Office Visit"
					}
				],
				"subject": {
					"reference": "Patient/14cc535b-6d38-440c-8f0b-4fb2f60b6d43"
				},
				"participant": [
					{
						"individual": {
							"reference": "Practitioner/c0041547-2e91-4536-8d30-3c7313b7b851"
						}
					}
				],
				"period": {
					"start": "2024-01-05T11:39:47-04:00",
					"end": "2024-02-18T14:27:49-04:00"
				},
				"location": [
					{
						"location": {
							"reference": "Location/d1636409-8269-4758-9130-20daf48d02f6",
							"display": "Clinic Bldg A, Salem Medical Center, 4444 Healthcare Drive, Ann Arbor MI, 99999"
						}
					}
				],
				"serviceProvider": {
					"reference": "Organization/a345ff5d-25f7-49c1-b0ae-005b6de75b22"
				}
			}
		},
		{
			"fullUrl": "http://example.org/Location/d1636409-8269-4758-9130-20daf48d02f1",
			"resource": {
				"resourceType": "Location",
				"id": "d1636409-8269-4758-9130-20daf48d02f1",
				"meta": {
					"profile": [
						"http://hl7.org/fhir/us/ph-library/StructureDefinition/us-ph-location"
					]
				},
				"text": {
					"status": "generated",
					"div": "<div xmlns=\"http://www.w3.org/1999/xhtml\">This is a simple narrative with only plain text</div>"
				},
				"identifier": [
					{
						"system": "http://hl7.org/fhir/sid/us-npi",
						"value": "1063494177"
					}
				],
				"status": "active",
				"name": "Clinic Bldg A, Salem Medical Center",
				"type": [
					{
						"coding": [
							{
								"system": "http://terminology.hl7.org/CodeSystem/v3-RoleCode",
								"code": "HOSP",
								"display": "Hospital"
							}
						]
					}
				],
				"telecom": [
					{
						"system": "phone",
						"value": "(+1) (555)555-3001"
					},
					{
						"system": "fax",
						"value": "(+1) (555)555-3002"
					},
					{
						"system": "email",
						"value": "mail@smc.org"
					}
				],
				"address": {
					"line": [
						"Clinic Bldg A",
						"4444 Healthcare Drive"
					],
					"city": "Ann Arbor",
					"state": "MI",
					"postalCode": "99999"
				},
				"managingOrganization": {
					"reference": "Organization/a345ff5d-25f7-49c1-b0ae-005b6de75b22"
				}
			}
		},
		{
			"fullUrl": "http://example.org/Condition/98d5e5db-d374-4b45-997f-1c3d96ee29c9",
			"resource": {
				"resourceType": "Condition",
				"id": "98d5e5db-d374-4b45-997f-1c3d96ee29c9",
				"meta": {
					"profile": [
						"http://hl7.org/fhir/us/ph-library/StructureDefinition/us-ph-condition-encounter-diagnosis"
					]
				},
				"text": {
					"status": "generated",
					"div": "<div xmlns=\"http://www.w3.org/1999/xhtml\">This is a simple narrative with only plain text</div>"
				},
				"clinicalStatus": {
					"coding": [
						{
							"system": "http://terminology.hl7.org/CodeSystem/condition-clinical",
							"code": "active",
							"display": "Active"
						}
					]
				},
				"verificationStatus": {
					"coding": [
						{
							"system": "http://terminology.hl7.org/CodeSystem/condition-ver-status",
							"code": "confirmed",
							"display": "Confirmed"
						}
					]
				},
				"category": [
					{
						"coding": [
							{
								"system": "http://terminology.hl7.org/CodeSystem/condition-category",
								"code": "encounter-diagnosis",
								"display": "Encounter Diagnosis"
							}
						]
					}
				],
				"code": {
					"coding": [
						{
							"system": "http://hl7.org/fhir/sid/icd-10-cm",
							"code": "A54.02",
							"display": "Gonococcal vulvovaginitis, unspecified"
						}
					],
					"text": "Gonococcal vulvovaginitis, unspecified"
				},
				"subject": {
					"reference": "Patient/14cc535b-6d38-440c-8f0b-4fb2f60b6d43"
				},
				"encounter": {
					"reference": "Encounter/d47df08c-63b0-4e89-84e0-c290f2a2e8ef"
				},
				"recordedDate": "2024-01-08T01:23:27-04:00"
			}
		},
		{
			"fullUrl": "http://example.org/MedicationRequest/764296f9-c6da-49b3-aab0-b32c098ac52b",
			"resource": {
				"resourceType": "MedicationRequest",
				"id": "764296f9-c6da-49b3-aab0-b32c098ac52b",
				"meta": {
					"profile": [
						"http://hl7.org/fhir/us/core/StructureDefinition/us-core-medicationrequest"
					]
				},
				"text": {
					"status": "generated",
					"div": "<div xmlns=\"http://www.w3.org/1999/xhtml\">This is a simple narrative with only plain text</div>"
				},
				"status": "completed",
				"intent": "order",
				"medicationCodeableConcept": {
					"coding": [
						{
							"system": "http://www.nlm.nih.gov/research/umls/rxnorm",
							"code": "309090",
							"display": "ceftriaxone 100 MG/ML Injectable Solution"
						}
					],
					"text": "ceftriaxone 100 MG/ML Injectable Solution"
				},
				"subject": {
					"reference": "Patient/14cc535b-6d38-440c-8f0b-4fb2f60b6d43"
				},
				"encounter": {
					"reference": "Encounter/d47df08c-63b0-4e89-84e0-c290f2a2e8ef"
				},
				"authoredOn": "2024-03-18T18:56:35-04:00",
				"requester": {
					"reference": "Practitioner/c0041547-2e91-4536-8d30-3c7313b7b851"
				},
				"reasonCode": [
					{
						"coding": [
							{
								"system": "http://hl7.org/fhir/sid/icd-10-cm",
								"code": "A54.02",
								"display": "Gonococcal vulvovaginitis, unspecified"
							}
						],
						"text": "Gonococcal vulvovaginitis, unspecified"
					},
					{
						"coding": [
							{
								"system": "http://snomed.info/sct",
								"code": "237083000",
								"display": "Gonococcal cervicitis"
							}
						],
						"text": "Gonococcal cervicitis"
					}
				],
				"reasonReference": [
					{
						"reference": "Condition/98d5e5db-d374-4b45-997f-1c3d96ee29c9"
					}
				],
				"dosageInstruction": [
					{
						"text": "IM 500mg/single dose"
					}
				]
			}
		},
		{
			"fullUrl": "http://example.org/Specimen/4290fdd9-75f3-4f44-92b0-3267f636e802",
			"resource": {
				"resourceType": "Specimen",
				"id": "4290fdd9-75f3-4f44-92b0-3267f636e802",
				"meta": {
					"profile": [
						"http://hl7.org/fhir/us/ph-library/StructureDefinition/us-ph-specimen"
					]
				},
				"text": {
					"status": "generated",
					"div": "<div xmlns=\"http://www.w3.org/1999/xhtml\">This is a simple narrative with only plain text</div>"
				},
				"type": {
					"coding": [
						{
							"system": "http://terminology.hl7.org/CodeSystem/v2-0487",
							"code": "GENV",
							"display": "Genital vaginal"
						}
					]
				},
				"subject": {
					"reference": "Patient/14cc535b-6d38-440c-8f0b-4fb2f60b6d43"
				}
			}
		},
		{
			"fullUrl": "http://example.org/Observation/78d04019-7957-45c9-b1a8-8a313b6ed034",
			"resource": {
				"resourceType": "Observation",
				"id": "78d04019-7957-45c9-b1a8-8a313b6ed034",
				"meta": {
					"profile": [
						"http://hl7.org/fhir/us/ph-library/StructureDefinition/us-ph-lab-result-observation"
					]
				},
				"text": {
					"status": "generated",
					"div": "<div xmlns=\"http://www.w3.org/1999/xhtml\">This is a simple narrative with only plain text</div>"
				},
				"status": "final",
				"category": [
					{
						"coding": [
							{
								"system": "http://terminology.hl7.org/CodeSystem/observation-category",
								"code": "laboratory",
								"display": "Laboratory"
							}
						]
					}
				],
				"code": {
					"coding": [
						{
							"system": "http://loinc.org",
							"code": "21414-8",
							"display": "Neisseria gonorrhoeae DNA [Presence] in Cervical mucus by NAA with probe detection"
						}
					]
				},
				"subject": {
					"reference": "Patient/14cc535b-6d38-440c-8f0b-4fb2f60b6d43"
				},
				"encounter": {
					"reference": "Encounter/d47df08c-63b0-4e89-84e0-c290f2a2e8ef"
				},
				"effectiveDateTime": "2024-07-14",
				"performer": [
					{
						"reference": "Practitioner/c0041547-2e91-4536-8d30-3c7313b7b851",
						"display": "Practitioner"
					}
				],
				"valueCodeableConcept": {
					"coding": [
						{
							"system": "http://snomed.info/sct",
							"code": "260373001",
							"display": "Detected"
						}
					]
				},
				"interpretation": [
					{
						"coding": [
							{
								"system": "http://terminology.hl7.org/CodeSystem/v3-ObservationInterpretation",
								"code": "POS",
								"display": "Positive"
							}
						]
					}
				],
				"specimen": {
					"reference": "Specimen/4290fdd9-75f3-4f44-92b0-3267f636e802"
				}
			}
		},
		{
			"fullUrl": "http://example.org/Observation/8259b1de-c222-4680-88c0-a840402c7667",
			"resource": {
				"resourceType": "Observation",
				"id": "8259b1de-c222-4680-88c0-a840402c7667",
				"meta": {
					"profile": [
						"http://hl7.org/fhir/us/ph-library/StructureDefinition/us-ph-pregnancy-status-observation"
					]
				},
				"text": {
					"status": "generated",
					"div": "<div xmlns=\"http://www.w3.org/1999/xhtml\">This is a simple narrative with only plain text</div>"
				},
				"status": "final",
				"category": [
					{
						"coding": [
							{
								"system": "http://terminology.hl7.org/CodeSystem/observation-category",
								"code": "social-history",
								"display": "Social History"
							}
						]
					}
				],
				"code": {
					"coding": [
						{
							"system": "http://loinc.org",
							"code": "82810-3",
							"display": "Pregnancy status"
						}
					],
					"text": "Pregnancy status"
				},
				"subject": {
					"reference": "Patient/14cc535b-6d38-440c-8f0b-4fb2f60b6d43"
				},
				"effectiveDateTime": "2024-09-03T03:55:24.470652+00:00",
				"performer": [
					{
						"reference": "Practitioner/c0041547-2e91-4536-8d30-3c7313b7b851",
						"display": "Practitioner"
					}
				],
				"valueCodeableConcept": {
					"coding": [
						{
							"system": "http://snomed.info/sct",
							"code": "60001007",
							"display": "Not pregnant (finding)"
						}
					],
					"text": "Not pregnant (finding)"
				}
			}
		}
	]
}