{
	"resourceType": "Bundle",
	"id": "3b53cbea-6b09-4d44-964c-01dc49d3bd3f",
	"meta": {
		"profile": [
			"http://hl7.org/fhir/us/ph-library/StructureDefinition/us-ph-content-bundle"
		]
	},
	"type": "collection",
	"entry": [
		{
			"fullUrl": "http://example.org/Patient/4f8aa376-b29c-421b-93d8-bbfd3aa1c608",
			"resource": {
				"resourceType": "Patient",
				"id": "4f8aa376-b29c-421b-93d8-bbfd3aa1c608",
				"meta": {
					"profile": [
						"http://hl7.org/fhir/us/ph-library/StructureDefinition/us-ph-patient"
					]
				},
				"text": {
					"status": "generated",
					"div": "<div xmlns=\"http://www.w3.org/1999/xhtml\">This is a simple narrative with only plain text</div>"
				},
				"extension": [
					{
						"extension": [
							{
								"url": "ombCategory",
								"valueCoding": {
									"system": "urn:oid:2.16.840.1.113883.6.238",
									"code": "2054-5",
									"display": "Black or African American"
								}
							},
							{
								"url": "text",
								"valueString": "Black or African American"
							}
						],
						"url": "http://hl7.org/fhir/us/core/StructureDefinition/us-core-race"
					},
					{
						"extension": [
							{
								"url": "ombCategory",
								"valueCoding": {
									"system": "urn:oid:2.16.840.1.113883.6.238",
									"code": "2186-5",
									"display": "Not Hispanic or Latino"
								}
							},
							{
								"url": "text",
								"valueString": "Not Hispanic or Latino"
							}
						],
						"url": "http://hl7.org/fhir/us/core/StructureDefinition/us-core-ethnicity"
					}
				],
				"identifier": [
					{
						"use": "usual",
						"type": {
							"coding": [
								{
									"system": "http://terminology.hl7.org/CodeSystem/v2-0203",
									"code": "MR",
									"display": "Medical Record Number"
								}
							],
							"text": "Medical Record Number"
						},
						"system": "http://hospital.smarthealthit.org",
						"value": "549766"
					}
				],
				"name": [
					{
						"use": "official",
						"family": "Irwin",
						"given": [
							"Allen",
							"G"
						]
					}
				],
				"telecom": [
					{
						"system": "phone",
						"value": "517-425-1399",
						"use": "home"
					}
				],
				"gender": "male",
				"birthDate": "2000-08-02",
				"deceasedBoolean": false,
				"address": [
					{
						"use": "home",
						"line": [
							"098 Kristy Shores Apt. 582"
						],
						"city": "Crystalton",
						"state": "OH",
						"country": "US"
					}
				],
				"communication": [
					{
						"language": {
							"coding": [
								{
									"system": "urn:ietf:bcp:47",
									"code": "en",
									"display": "English"
								}
							]
						}
					}
				]
			}
		},
		{
			"fullUrl": "http://example.org/Observation/dba200b7-84e9-4df2-a9b9-1bbf3e1a2d51",
			"resource": {
				"resourceType": "Observation",
				"id": "dba200b7-84e9-4df2-a9b9-1bbf3e1a2d51",
				"meta": {
					"profile": [
						"http://hl7.org/fhir/us/core/StructureDefinition/us-core-simple-observation"
					]
				},
				"text": {
					"status": "generated",
					"div": "<div xmlns=\"http://www.w3.org/1999/xhtml\">This is a simple narrative with only plain text</div>"
				},
				"status": "final",
				"category": [
					{
						"coding": [
							{
								"system": "http://terminology.hl7.org/CodeSystem/observation-category",
								"code": "social-history",
								"display": "Social History"
							}
						]
					}
				],
				"code": {
					"coding": [
						{
							"system": "http://loinc.org",
							"code": "85736-7",
							"display": "Number of sexual partners in last 12 months"
						}
					],
					"text": "Number of sexual partners in last 12 months"
				},
				"subject": {
					"reference": "Patient/4f8aa376-b29c-421b-93d8-bbfd3aa1c608"
				},
				"effectiveDateTime": "2024-09-03T03:55:15.517184+00:00",
				"performer": [
					{
						"reference": "Practitioner/a77ef540-dfd9-4fc3-a2ea-e30256d4a834",
						"display": "Practitioner"
					}
				],
				"valueCodeableConcept": {
					"coding": [
						{
							"system": "http://snomed.info/sct",
							"code": "228460004",
							"display": "Multiple current sexual partners (finding)"
						}
					],
					"text": "Multiple current sexual partners (finding)"
				}
			}
		},
		{
			"fullUrl": "http://example.org/Practitioner/a77ef540-dfd9-4fc3-a2ea-e30256d4a834",
			"resource": {
				"resourceType": "Practitioner",
				"id": "a77ef540-dfd9-4fc3-a2ea-e30256d4a834",
				"meta": {
					"profile": [
						"http://hl7.org/fhir/us/core/StructureDefinition/us-core-practitioner"
					]
				},
				"text": {
					"status": "generated",
					"div": "<div xmlns=\"http://www.w3.org/1999/xhtml\">This is a simple narrative with only plain text</div>"
				},
				"identifier": [
					{
						"system": "http://hl7.org/fhir/sid/us-npi",
						"value": "6740713857"
					}
				],
				"name": [
					{
						"use": "official",
						"family": "Anthony",
						"given": [
							"David"
						]
					}
				]
			}
		},
		{
			"fullUrl": "http://example.org/Organization/a00a5016-c72d-4375-b9d3-b03e7dcfba1e",
			"resource": {
				"resourceType": "Organization",
				"id": "a00a5016-c72d-4375-b9d3-b03e7dcfba1e",
				"meta": {
					"profile": [
						"http://hl7.org/fhir/us/ph-library/StructureDefinition/us-ph-organization"
					]
				},
				"text": {
					"status": "generated",
					"div": "<div xmlns=\"http://www.w3.org/1999/xhtml\">This is a simple narrative with only plain text</div>"
				},
				"active": true,
				"name": "Hospital G",
				"telecom": [
					{
						"system": "phone",
						"value": "(+1) 734-677-7777"
					}
				],
				"address": [
					{
						"use": "work",
						"line": [
							"72714 Delgado Knoll"
						],
						"state": "OH",
						"country": "US"
					}
				]
			}
		},
		{
			"fullUrl": "http://example.org/Encounter/ab8dd57a-bdec-4197-a8b2-a110b66a51bd",
			"resource": {
				"resourceType": "Encounter",
				"id": "ab8dd57a-bdec-4197-a8b2-a110b66a51bd",
				"meta": {
					"profile": [
						"http://hl7.org/fhir/us/ph-library/StructureDefinition/us-ph-encounter"
					]
				},
				"text": {
					"status": "generated",
					"div": "<div xmlns=\"http://www.w3.org/1999/xhtml\">This is a simple narrative with only plain text</div>"
				},
				"status": "finished",
				"class": {
					"system": "http://terminology.hl7.org/CodeSystem/v3-ActCode",
					"code": "AMB",
					"display": "ambulatory"
				},
				"type": [
					{
						"coding": [
							{
								"system": "http://www.ama-assn.org/go/cpt",
								"code": "99213",
								"display": "Office or other outpatient visit for the evaluation and management of an established patient, which requires a medically appropriate history and/or examination and low level of medical decision making. When using time for code selection, 20-29 minutes of total time is spent on the date of the encounter."
							}
						],
						"text": "Office Visit"
					}
				],
				"subject": {
					"reference": "Patient/4f8aa376-b29c-421b-93d8-bbfd3aa1c608"
				},
				"participant": [
					{
						"individual": {
							"reference": "Practitioner/a77ef540-dfd9-4fc3-a2ea-e30256d4a834"
						}
					}
				],
				"period": {
					"start": "2024-05-29T18:50:34-04:00",
					"end": "2024-06-19T13:53:46-04:00"
				},
				"location": [
					{
						"location": {
							"reference": "Location/d1636409-8269-4758-9130-20daf48d02f6",
							"display": "Clinic Bldg A, Salem Medical Center, 4444 Healthcare Drive, Ann Arbor MI, 99999"
						}
					}
				],
				"serviceProvider": {
					"reference": "Organization/a00a5016-c72d-4375-b9d3-b03e7dcfba1e"
				}
			}
		},
		{
			"fullUrl": "http://example.org/Location/d1636409-8269-4758-9130-20daf48d02f1",
			"resource": {
				"resourceType": "Location",
				"id": "d1636409-8269-4758-9130-20daf48d02f1",
				"meta": {
					"profile": [
						"http://hl7.org/fhir/us/ph-library/StructureDefinition/us-ph-location"
					]
				},
				"text": {
					"status": "generated",
					"div": "<div xmlns=\"http://www.w3.org/1999/xhtml\">This is a simple narrative with only plain text</div>"
				},
				"identifier": [
					{
						"system": "http://hl7.org/fhir/sid/us-npi",
						"value": "1063494177"
					}
				],
				"status": "active",
				"name": "Clinic Bldg A, Salem Medical Center",
				"type": [
					{
						"coding": [
							{
								"system": "http://terminology.hl7.org/CodeSystem/v3-RoleCode",
								"code": "HOSP",
								"display": "Hospital"
							}
						]
					}
				],
				"telecom": [
					{
						"system": "phone",
						"value": "(+1) (555)555-3001"
					},
					{
						"system": "fax",
						"value": "(+1) (555)555-3002"
					},
					{
						"system": "email",
						"value": "mail@smc.org"
					}
				],
				"address": {
					"line": [
						"Clinic Bldg A",
						"4444 Healthcare Drive"
					],
					"city": "Ann Arbor",
					"state": "MI",
					"postalCode": "99999"
				},
				"managingOrganization": {
					"reference": "Organization/a00a5016-c72d-4375-b9d3-b03e7dcfba1e"
				}
			}
		},
		{
			"fullUrl": "http://example.org/Condition/b4f12d05-3274-4c3a-8ee1-bfa00b30092f",
			"resource": {
				"resourceType": "Condition",
				"id": "b4f12d05-3274-4c3a-8ee1-bfa00b30092f",
				"meta": {
					"profile": [
						"http://hl7.org/fhir/us/ph-library/StructureDefinition/us-ph-condition-encounter-diagnosis"
					]
				},
				"text": {
					"status": "generated",
					"div": "<div xmlns=\"http://www.w3.org/1999/xhtml\">This is a simple narrative with only plain text</div>"
				},
				"clinicalStatus": {
					"coding": [
						{
							"system": "http://terminology.hl7.org/CodeSystem/condition-clinical",
							"code": "active",
							"display": "Active"
						}
					]
				},
				"verificationStatus": {
					"coding": [
						{
							"system": "http://terminology.hl7.org/CodeSystem/condition-ver-status",
							"code": "confirmed",
							"display": "Confirmed"
						}
					]
				},
				"category": [
					{
						"coding": [
							{
								"system": "http://terminology.hl7.org/CodeSystem/condition-category",
								"code": "encounter-diagnosis",
								"display": "Encounter Diagnosis"
							}
						]
					}
				],
				"code": {
					"coding": [
						{
							"system": "http://hl7.org/fhir/sid/icd-10-cm",
							"code": "A54.00",
							"display": "Gonococcal infection of lower genitourinary tract, unspecified"
						}
					],
					"text": "Gonococcal infection of lower genitourinary tract, unspecified"
				},
				"subject": {
					"reference": "Patient/4f8aa376-b29c-421b-93d8-bbfd3aa1c608"
				},
				"encounter": {
					"reference": "Encounter/ab8dd57a-bdec-4197-a8b2-a110b66a51bd"
				},
				"recordedDate": "2024-01-04T10:20:37-04:00"
			}
		},
		{
			"fullUrl": "http://example.org/MedicationRequest/ad594b56-cc37-47e1-add8-40619cd8737b",
			"resource": {
				"resourceType": "MedicationRequest",
				"id": "ad594b56-cc37-47e1-add8-40619cd8737b",
				"meta": {
					"profile": [
						"http://hl7.org/fhir/us/core/StructureDefinition/us-core-medicationrequest"
					]
				},
				"text": {
					"status": "generated",
					"div": "<div xmlns=\"http://www.w3.org/1999/xhtml\">This is a simple narrative with only plain text</div>"
				},
				"status": "completed",
				"intent": "order",
				"medicationCodeableConcept": {
					"coding": [
						{
							"system": "http://www.nlm.nih.gov/research/umls/rxnorm",
							"code": "309090",
							"display": "ceftriaxone 100 MG/ML Injectable Solution"
						}
					],
					"text": "ceftriaxone 100 MG/ML Injectable Solution"
				},
				"subject": {
					"reference": "Patient/4f8aa376-b29c-421b-93d8-bbfd3aa1c608"
				},
				"encounter": {
					"reference": "Encounter/ab8dd57a-bdec-4197-a8b2-a110b66a51bd"
				},
				"authoredOn": "2024-02-21T05:44:33-04:00",
				"requester": {
					"reference": "Practitioner/a77ef540-dfd9-4fc3-a2ea-e30256d4a834"
				},
				"reasonCode": [
					{
						"coding": [
							{
								"system": "http://hl7.org/fhir/sid/icd-10-cm",
								"code": "A54.00",
								"display": "Gonococcal infection of lower genitourinary tract, unspecified"
							}
						],
						"text": "Gonococcal infection of lower genitourinary tract, unspecified"
					},
					{
						"coding": [
							{
								"system": "http://snomed.info/sct",
								"code": "788961008",
								"display": "Infection of the penile urethra caused by Neisseria gonorrhoeae (disorder)"
							}
						],
						"text": "Infection of the penile urethra caused by Neisseria gonorrhoeae (disorder)"
					}
				],
				"reasonReference": [
					{
						"reference": "Condition/b4f12d05-3274-4c3a-8ee1-bfa00b30092f"
					}
				],
				"dosageInstruction": [
					{
						"text": "IM 500mg/single dose"
					}
				]
			}
		},
		{
			"fullUrl": "http://example.org/Specimen/dc5c6469-dfa1-4700-bf6d-8bf58b4a86eb",
			"resource": {
				"resourceType": "Specimen",
				"id": "dc5c6469-dfa1-4700-bf6d-8bf58b4a86eb",
				"meta": {
					"profile": [
						"http://hl7.org/fhir/us/ph-library/StructureDefinition/us-ph-specimen"
					]
				},
				"text": {
					"status": "generated",
					"div": "<div xmlns=\"http://www.w3.org/1999/xhtml\">This is a simple narrative with only plain text</div>"
				},
				"type": {
					"coding": [
						{
							"system": "http://terminology.hl7.org/CodeSystem/v2-0487",
							"code": "SMN",
							"display": "Seminal fluid"
						}
					]
				},
				"subject": {
					"reference": "Patient/4f8aa376-b29c-421b-93d8-bbfd3aa1c608"
				}
			}
		},
		{
			"fullUrl": "http://example.org/Observation/1eeb31e3-edc3-46d4-8ba2-7cb42c25f2c2",
			"resource": {
				"resourceType": "Observation",
				"id": "1eeb31e3-edc3-46d4-8ba2-7cb42c25f2c2",
				"meta": {
					"profile": [
						"http://hl7.org/fhir/us/ph-library/StructureDefinition/us-ph-lab-result-observation"
					]
				},
				"text": {
					"status": "generated",
					"div": "<div xmlns=\"http://www.w3.org/1999/xhtml\">This is a simple narrative with only plain text</div>"
				},
				"status": "final",
				"category": [
					{
						"coding": [
							{
								"system": "http://terminology.hl7.org/CodeSystem/observation-category",
								"code": "laboratory",
								"display": "Laboratory"
							}
						]
					}
				],
				"code": {
					"coding": [
						{
							"system": "http://loinc.org",
							"code": "47387-6",
							"display": "Neisseria gonorrhoeae DNA [Presence] in Genital specimen by NAA with probe detection"
						}
					]
				},
				"subject": {
					"reference": "Patient/4f8aa376-b29c-421b-93d8-bbfd3aa1c608"
				},
				"encounter": {
					"reference": "Encounter/ab8dd57a-bdec-4197-a8b2-a110b66a51bd"
				},
				"effectiveDateTime": "2024-07-06",
				"performer": [
					{
						"reference": "Practitioner/a77ef540-dfd9-4fc3-a2ea-e30256d4a834",
						"display": "Practitioner"
					}
				],
				"valueCodeableConcept": {
					"coding": [
						{
							"system": "http://snomed.info/sct",
							"code": "260373001",
							"display": "Detected"
						}
					]
				},
				"interpretation": [
					{
						"coding": [
							{
								"system": "http://terminology.hl7.org/CodeSystem/v3-ObservationInterpretation",
								"code": "POS",
								"display": "Positive"
							}
						]
					}
				],
				"specimen": {
					"reference": "Specimen/dc5c6469-dfa1-4700-bf6d-8bf58b4a86eb"
				}
			}
		},
		{
			"fullUrl": "http://example.org/Observation/752238e8-e02f-45ae-91ac-4928c0c7de2c",
			"resource": {
				"resourceType": "Observation",
				"id": "752238e8-e02f-45ae-91ac-4928c0c7de2c",
				"meta": {
					"profile": [
						"http://hl7.org/fhir/us/ph-library/StructureDefinition/us-ph-pregnancy-status-observation"
					]
				},
				"text": {
					"status": "generated",
					"div": "<div xmlns=\"http://www.w3.org/1999/xhtml\">This is a simple narrative with only plain text</div>"
				},
				"status": "final",
				"category": [
					{
						"coding": [
							{
								"system": "http://terminology.hl7.org/CodeSystem/observation-category",
								"code": "social-history",
								"display": "Social History"
							}
						]
					}
				],
				"code": {
					"coding": [
						{
							"system": "http://loinc.org",
							"code": "82810-3",
							"display": "Pregnancy status"
						}
					],
					"text": "Pregnancy status"
				},
				"subject": {
					"reference": "Patient/4f8aa376-b29c-421b-93d8-bbfd3aa1c608"
				},
				"effectiveDateTime": "2024-09-03T03:55:15.520630+00:00",
				"performer": [
					{
						"reference": "Practitioner/a77ef540-dfd9-4fc3-a2ea-e30256d4a834",
						"display": "Practitioner"
					}
				],
				"valueCodeableConcept": {
					"coding": [
						{
							"system": "http://snomed.info/sct",
							"code": "60001007",
							"display": "Not pregnant (finding)"
						}
					],
					"text": "Not pregnant (finding)"
				}
			}
		}
	]
}