{
	"resourceType": "Bundle",
	"id": "463833bd-5fa9-4af9-ae6d-7bd6f983ccce",
	"meta": {
		"profile": [
			"http://hl7.org/fhir/us/ph-library/StructureDefinition/us-ph-content-bundle"
		]
	},
	"type": "collection",
	"entry": [
		{
			"fullUrl": "http://example.org/Patient/c7c69537-6d61-4ce3-8a00-f8d511e44291",
			"resource": {
				"resourceType": "Patient",
				"id": "c7c69537-6d61-4ce3-8a00-f8d511e44291",
				"meta": {
					"profile": [
						"http://hl7.org/fhir/us/ph-library/StructureDefinition/us-ph-patient"
					]
				},
				"text": {
					"status": "generated",
					"div": "<div xmlns=\"http://www.w3.org/1999/xhtml\">This is a simple narrative with only plain text</div>"
				},
				"extension": [
					{
						"extension": [
							{
								"url": "ombCategory",
								"valueCoding": {
									"system": "urn:oid:2.16.840.1.113883.6.238",
									"code": "2106-3",
									"display": "White"
								}
							},
							{
								"url": "text",
								"valueString": "White"
							}
						],
						"url": "http://hl7.org/fhir/us/core/StructureDefinition/us-core-race"
					},
					{
						"extension": [
							{
								"url": "ombCategory",
								"valueCoding": {
									"system": "urn:oid:2.16.840.1.113883.6.238",
									"code": "2186-5",
									"display": "Not Hispanic or Latino"
								}
							},
							{
								"url": "text",
								"valueString": "Not Hispanic or Latino"
							}
						],
						"url": "http://hl7.org/fhir/us/core/StructureDefinition/us-core-ethnicity"
					}
				],
				"identifier": [
					{
						"use": "usual",
						"type": {
							"coding": [
								{
									"system": "http://terminology.hl7.org/CodeSystem/v2-0203",
									"code": "MR",
									"display": "Medical Record Number"
								}
							],
							"text": "Medical Record Number"
						},
						"system": "http://hospital.smarthealthit.org",
						"value": "598070"
					}
				],
				"name": [
					{
						"use": "official",
						"family": "James",
						"given": [
							"Rodney",
							"F"
						]
					}
				],
				"telecom": [
					{
						"system": "phone",
						"value": "517-425-1399",
						"use": "home"
					}
				],
				"gender": "male",
				"birthDate": "1983-10-22",
				"deceasedBoolean": false,
				"address": [
					{
						"use": "home",
						"line": [
							"60894 Daniel Meadows"
						],
						"city": "South Garyside",
						"state": "MI",
						"country": "US"
					}
				],
				"communication": [
					{
						"language": {
							"coding": [
								{
									"system": "urn:ietf:bcp:47",
									"code": "en",
									"display": "English"
								}
							]
						}
					}
				]
			}
		},
		{
			"fullUrl": "http://example.org/Observation/6fa80a63-22fa-4596-9317-81cdd2099370",
			"resource": {
				"resourceType": "Observation",
				"id": "6fa80a63-22fa-4596-9317-81cdd2099370",
				"meta": {
					"profile": [
						"http://hl7.org/fhir/us/core/StructureDefinition/us-core-smokingstatus"
					]
				},
				"text": {
					"status": "generated",
					"div": "<div xmlns=\"http://www.w3.org/1999/xhtml\">This is a simple narrative with only plain text</div>"
				},
				"status": "final",
				"category": [
					{
						"coding": [
							{
								"system": "http://terminology.hl7.org/CodeSystem/observation-category",
								"code": "social-history",
								"display": "Social History"
							}
						]
					}
				],
				"code": {
					"coding": [
						{
							"system": "http://loinc.org",
							"code": "72166-2",
							"display": "Tobacco smoking status"
						}
					],
					"text": "Tobacco smoking status"
				},
				"subject": {
					"reference": "Patient/c7c69537-6d61-4ce3-8a00-f8d511e44291"
				},
				"effectiveDateTime": "2024-09-03T03:55:14.639603+00:00",
				"performer": [
					{
						"reference": "Practitioner/b1f2712f-cf84-48f5-864b-d97da167f166",
						"display": "Practitioner"
					}
				],
				"valueCodeableConcept": {
					"coding": [
						{
							"system": "http://snomed.info/sct",
							"code": "8392000",
							"display": "Non-smoker (finding)"
						}
					],
					"text": "Non-smoker (finding)"
				}
			}
		},
		{
			"fullUrl": "http://example.org/Practitioner/b1f2712f-cf84-48f5-864b-d97da167f166",
			"resource": {
				"resourceType": "Practitioner",
				"id": "b1f2712f-cf84-48f5-864b-d97da167f166",
				"meta": {
					"profile": [
						"http://hl7.org/fhir/us/core/StructureDefinition/us-core-practitioner"
					]
				},
				"text": {
					"status": "generated",
					"div": "<div xmlns=\"http://www.w3.org/1999/xhtml\">This is a simple narrative with only plain text</div>"
				},
				"identifier": [
					{
						"system": "http://hl7.org/fhir/sid/us-npi",
						"value": "4392224000"
					}
				],
				"name": [
					{
						"use": "official",
						"family": "Hill",
						"given": [
							"Jeffrey"
						]
					}
				]
			}
		},
		{
			"fullUrl": "http://example.org/Organization/0cddd9d3-b76b-40d6-a44f-e90c07d87641",
			"resource": {
				"resourceType": "Organization",
				"id": "0cddd9d3-b76b-40d6-a44f-e90c07d87641",
				"meta": {
					"profile": [
						"http://hl7.org/fhir/us/ph-library/StructureDefinition/us-ph-organization"
					]
				},
				"text": {
					"status": "generated",
					"div": "<div xmlns=\"http://www.w3.org/1999/xhtml\">This is a simple narrative with only plain text</div>"
				},
				"active": true,
				"name": "Hospital F",
				"telecom": [
					{
						"system": "phone",
						"value": "(+1) 734-677-7777"
					}
				],
				"address": [
					{
						"use": "work",
						"line": [
							"76877 Palmer Squares Apt. 758"
						],
						"state": "MI",
						"country": "US"
					}
				]
			}
		},
		{
			"fullUrl": "http://example.org/Encounter/3bc79341-8474-488c-a0c6-bae130d7cdd2",
			"resource": {
				"resourceType": "Encounter",
				"id": "3bc79341-8474-488c-a0c6-bae130d7cdd2",
				"meta": {
					"profile": [
						"http://hl7.org/fhir/us/ph-library/StructureDefinition/us-ph-encounter"
					]
				},
				"text": {
					"status": "generated",
					"div": "<div xmlns=\"http://www.w3.org/1999/xhtml\">This is a simple narrative with only plain text</div>"
				},
				"status": "finished",
				"class": {
					"system": "http://terminology.hl7.org/CodeSystem/v3-ActCode",
					"code": "AMB",
					"display": "ambulatory"
				},
				"type": [
					{
						"coding": [
							{
								"system": "http://www.ama-assn.org/go/cpt",
								"code": "99213",
								"display": "Office or other outpatient visit for the evaluation and management of an established patient, which requires a medically appropriate history and/or examination and low level of medical decision making. When using time for code selection, 20-29 minutes of total time is spent on the date of the encounter."
							}
						],
						"text": "Office Visit"
					}
				],
				"subject": {
					"reference": "Patient/c7c69537-6d61-4ce3-8a00-f8d511e44291"
				},
				"participant": [
					{
						"individual": {
							"reference": "Practitioner/b1f2712f-cf84-48f5-864b-d97da167f166"
						}
					}
				],
				"period": {
					"start": "2024-02-01T23:30:35-04:00",
					"end": "2024-05-04T21:29:56-04:00"
				},
				"location": [
					{
						"location": {
							"reference": "Location/d1636409-8269-4758-9130-20daf48d02f6",
							"display": "Clinic Bldg A, Salem Medical Center, 4444 Healthcare Drive, Ann Arbor MI, 99999"
						}
					}
				],
				"serviceProvider": {
					"reference": "Organization/0cddd9d3-b76b-40d6-a44f-e90c07d87641"
				}
			}
		},
		{
			"fullUrl": "http://example.org/Location/d1636409-8269-4758-9130-20daf48d02f1",
			"resource": {
				"resourceType": "Location",
				"id": "d1636409-8269-4758-9130-20daf48d02f1",
				"meta": {
					"profile": [
						"http://hl7.org/fhir/us/ph-library/StructureDefinition/us-ph-location"
					]
				},
				"text": {
					"status": "generated",
					"div": "<div xmlns=\"http://www.w3.org/1999/xhtml\">This is a simple narrative with only plain text</div>"
				},
				"identifier": [
					{
						"system": "http://hl7.org/fhir/sid/us-npi",
						"value": "1063494177"
					}
				],
				"status": "active",
				"name": "Clinic Bldg A, Salem Medical Center",
				"type": [
					{
						"coding": [
							{
								"system": "http://terminology.hl7.org/CodeSystem/v3-RoleCode",
								"code": "HOSP",
								"display": "Hospital"
							}
						]
					}
				],
				"telecom": [
					{
						"system": "phone",
						"value": "(+1) (555)555-3001"
					},
					{
						"system": "fax",
						"value": "(+1) (555)555-3002"
					},
					{
						"system": "email",
						"value": "mail@smc.org"
					}
				],
				"address": {
					"line": [
						"Clinic Bldg A",
						"4444 Healthcare Drive"
					],
					"city": "Ann Arbor",
					"state": "MI",
					"postalCode": "99999"
				},
				"managingOrganization": {
					"reference": "Organization/0cddd9d3-b76b-40d6-a44f-e90c07d87641"
				}
			}
		},
		{
			"fullUrl": "http://example.org/Condition/ad72f425-5739-4cbd-bdb1-8745f63d260e",
			"resource": {
				"resourceType": "Condition",
				"id": "ad72f425-5739-4cbd-bdb1-8745f63d260e",
				"meta": {
					"profile": [
						"http://hl7.org/fhir/us/ph-library/StructureDefinition/us-ph-condition-encounter-diagnosis"
					]
				},
				"text": {
					"status": "generated",
					"div": "<div xmlns=\"http://www.w3.org/1999/xhtml\">This is a simple narrative with only plain text</div>"
				},
				"clinicalStatus": {
					"coding": [
						{
							"system": "http://terminology.hl7.org/CodeSystem/condition-clinical",
							"code": "active",
							"display": "Active"
						}
					]
				},
				"verificationStatus": {
					"coding": [
						{
							"system": "http://terminology.hl7.org/CodeSystem/condition-ver-status",
							"code": "confirmed",
							"display": "Confirmed"
						}
					]
				},
				"category": [
					{
						"coding": [
							{
								"system": "http://terminology.hl7.org/CodeSystem/condition-category",
								"code": "encounter-diagnosis",
								"display": "Encounter Diagnosis"
							}
						]
					}
				],
				"code": {
					"coding": [
						{
							"system": "http://hl7.org/fhir/sid/icd-10-cm",
							"code": "A54.00",
							"display": "Gonococcal infection of lower genitourinary tract, unspecified"
						}
					],
					"text": "Gonococcal infection of lower genitourinary tract, unspecified"
				},
				"subject": {
					"reference": "Patient/c7c69537-6d61-4ce3-8a00-f8d511e44291"
				},
				"encounter": {
					"reference": "Encounter/3bc79341-8474-488c-a0c6-bae130d7cdd2"
				},
				"recordedDate": "2024-06-17T04:54:20-04:00"
			}
		},
		{
			"fullUrl": "http://example.org/MedicationRequest/c7ff1b3b-a906-4fcd-8a5c-70c78528a20b",
			"resource": {
				"resourceType": "MedicationRequest",
				"id": "c7ff1b3b-a906-4fcd-8a5c-70c78528a20b",
				"meta": {
					"profile": [
						"http://hl7.org/fhir/us/core/StructureDefinition/us-core-medicationrequest"
					]
				},
				"text": {
					"status": "generated",
					"div": "<div xmlns=\"http://www.w3.org/1999/xhtml\">This is a simple narrative with only plain text</div>"
				},
				"status": "completed",
				"intent": "order",
				"medicationCodeableConcept": {
					"coding": [
						{
							"system": "http://www.nlm.nih.gov/research/umls/rxnorm",
							"code": "309090",
							"display": "ceftriaxone 100 MG/ML Injectable Solution"
						}
					],
					"text": "ceftriaxone 100 MG/ML Injectable Solution"
				},
				"subject": {
					"reference": "Patient/c7c69537-6d61-4ce3-8a00-f8d511e44291"
				},
				"encounter": {
					"reference": "Encounter/3bc79341-8474-488c-a0c6-bae130d7cdd2"
				},
				"authoredOn": "2024-06-09T15:07:02-04:00",
				"requester": {
					"reference": "Practitioner/b1f2712f-cf84-48f5-864b-d97da167f166"
				},
				"reasonCode": [
					{
						"coding": [
							{
								"system": "http://hl7.org/fhir/sid/icd-10-cm",
								"code": "A54.00",
								"display": "Gonococcal infection of lower genitourinary tract, unspecified"
							}
						],
						"text": "Gonococcal infection of lower genitourinary tract, unspecified"
					},
					{
						"coding": [
							{
								"system": "http://snomed.info/sct",
								"code": "788961008",
								"display": "Infection of the penile urethra caused by Neisseria gonorrhoeae (disorder)"
							}
						],
						"text": "Infection of the penile urethra caused by Neisseria gonorrhoeae (disorder)"
					}
				],
				"reasonReference": [
					{
						"reference": "Condition/ad72f425-5739-4cbd-bdb1-8745f63d260e"
					}
				],
				"dosageInstruction": [
					{
						"text": "IM 500mg/single dose"
					}
				]
			}
		},
		{
			"fullUrl": "http://example.org/Specimen/d592d3c7-f85d-468a-a1a4-1552a2cf1334",
			"resource": {
				"resourceType": "Specimen",
				"id": "d592d3c7-f85d-468a-a1a4-1552a2cf1334",
				"meta": {
					"profile": [
						"http://hl7.org/fhir/us/ph-library/StructureDefinition/us-ph-specimen"
					]
				},
				"text": {
					"status": "generated",
					"div": "<div xmlns=\"http://www.w3.org/1999/xhtml\">This is a simple narrative with only plain text</div>"
				},
				"type": {
					"coding": [
						{
							"system": "http://terminology.hl7.org/CodeSystem/v2-0487",
							"code": "SMN",
							"display": "Seminal fluid"
						}
					]
				},
				"subject": {
					"reference": "Patient/c7c69537-6d61-4ce3-8a00-f8d511e44291"
				}
			}
		},
		{
			"fullUrl": "http://example.org/Observation/62c6ea74-4c8d-4c04-a9b5-a8bce7029791",
			"resource": {
				"resourceType": "Observation",
				"id": "62c6ea74-4c8d-4c04-a9b5-a8bce7029791",
				"meta": {
					"profile": [
						"http://hl7.org/fhir/us/ph-library/StructureDefinition/us-ph-lab-result-observation"
					]
				},
				"text": {
					"status": "generated",
					"div": "<div xmlns=\"http://www.w3.org/1999/xhtml\">This is a simple narrative with only plain text</div>"
				},
				"status": "final",
				"category": [
					{
						"coding": [
							{
								"system": "http://terminology.hl7.org/CodeSystem/observation-category",
								"code": "laboratory",
								"display": "Laboratory"
							}
						]
					}
				],
				"code": {
					"coding": [
						{
							"system": "http://loinc.org",
							"code": "47387-6",
							"display": "Neisseria gonorrhoeae DNA [Presence] in Genital specimen by NAA with probe detection"
						}
					]
				},
				"subject": {
					"reference": "Patient/c7c69537-6d61-4ce3-8a00-f8d511e44291"
				},
				"encounter": {
					"reference": "Encounter/3bc79341-8474-488c-a0c6-bae130d7cdd2"
				},
				"effectiveDateTime": "2024-07-05",
				"performer": [
					{
						"reference": "Practitioner/b1f2712f-cf84-48f5-864b-d97da167f166",
						"display": "Practitioner"
					}
				],
				"valueCodeableConcept": {
					"coding": [
						{
							"system": "http://snomed.info/sct",
							"code": "260373001",
							"display": "Detected"
						}
					]
				},
				"interpretation": [
					{
						"coding": [
							{
								"system": "http://terminology.hl7.org/CodeSystem/v3-ObservationInterpretation",
								"code": "POS",
								"display": "Positive"
							}
						]
					}
				],
				"specimen": {
					"reference": "Specimen/d592d3c7-f85d-468a-a1a4-1552a2cf1334"
				}
			}
		},
		{
			"fullUrl": "http://example.org/Observation/3052cc76-2770-43d3-812c-d374bd79e19a",
			"resource": {
				"resourceType": "Observation",
				"id": "3052cc76-2770-43d3-812c-d374bd79e19a",
				"meta": {
					"profile": [
						"http://hl7.org/fhir/us/ph-library/StructureDefinition/us-ph-pregnancy-status-observation"
					]
				},
				"text": {
					"status": "generated",
					"div": "<div xmlns=\"http://www.w3.org/1999/xhtml\">This is a simple narrative with only plain text</div>"
				},
				"status": "final",
				"category": [
					{
						"coding": [
							{
								"system": "http://terminology.hl7.org/CodeSystem/observation-category",
								"code": "social-history",
								"display": "Social History"
							}
						]
					}
				],
				"code": {
					"coding": [
						{
							"system": "http://loinc.org",
							"code": "82810-3",
							"display": "Pregnancy status"
						}
					],
					"text": "Pregnancy status"
				},
				"subject": {
					"reference": "Patient/c7c69537-6d61-4ce3-8a00-f8d511e44291"
				},
				"effectiveDateTime": "2024-09-03T03:55:14.641034+00:00",
				"performer": [
					{
						"reference": "Practitioner/b1f2712f-cf84-48f5-864b-d97da167f166",
						"display": "Practitioner"
					}
				],
				"valueCodeableConcept": {
					"coding": [
						{
							"system": "http://snomed.info/sct",
							"code": "60001007",
							"display": "Not pregnant (finding)"
						}
					],
					"text": "Not pregnant (finding)"
				}
			}
		}
	]
}