{
	"resourceType": "Bundle",
	"id": "51e1a7a9-9ad8-46bd-bc1d-fa65d2757cf1",
	"meta": {
		"profile": [
			"http://hl7.org/fhir/us/ph-library/StructureDefinition/us-ph-content-bundle"
		]
	},
	"type": "collection",
	"entry": [
		{
			"fullUrl": "http://example.org/Patient/782b2e26-5cc9-4d06-9057-ebb3f8d18214",
			"resource": {
				"resourceType": "Patient",
				"id": "782b2e26-5cc9-4d06-9057-ebb3f8d18214",
				"meta": {
					"profile": [
						"http://hl7.org/fhir/us/core/StructureDefinition/us-core-patient"
					]
				},
				"text": {
					"status": "generated",
					"div": "<div xmlns=\"http://www.w3.org/1999/xhtml\">This is a simple narrative with only plain text</div>"
				},
				"identifier": [
					{
						"use": "usual",
						"type": {
							"coding": [
								{
									"system": "http://terminology.hl7.org/CodeSystem/v2-0203",
									"code": "MR",
									"display": "Medical Record Number"
								}
							],
							"text": "Medical Record Number"
						},
						"system": "http://hospital.smarthealthit.org",
						"value": "228657"
					}
				],
				"name": [
					{
						"use": "official",
						"family": "Peach",
						"given": [
							"Ginger"
						]
					}
				],
				"telecom": [
					{
						"system": "phone",
						"value": "517-425-1399",
						"use": "home"
					}
				],
				"gender": "female",
				"birthDate": "1998-03-14",
				"address": [
					{
						"use": "home",
						"line": [
							"16974 Carter Squares"
						],
						"city": "South Jeffery",
						"state": "VT",
						"country": "US"
					}
				]
			}
		},
		{
			"fullUrl": "http://example.org/Observation/9656b18b-34c6-45d1-8ecf-e9ee9b7badce",
			"resource": {
				"resourceType": "Observation",
				"id": "9656b18b-34c6-45d1-8ecf-e9ee9b7badce",
				"meta": {
					"profile": [
						"http://hl7.org/fhir/us/core/StructureDefinition/us-core-smokingstatus"
					]
				},
				"text": {
					"status": "generated",
					"div": "<div xmlns=\"http://www.w3.org/1999/xhtml\">This is a simple narrative with only plain text</div>"
				},
				"status": "final",
				"category": [
					{
						"coding": [
							{
								"system": "http://terminology.hl7.org/CodeSystem/observation-category",
								"code": "social-history",
								"display": "Social History"
							}
						]
					}
				],
				"code": {
					"coding": [
						{
							"system": "http://loinc.org",
							"code": "72166-2",
							"display": "Tobacco smoking status"
						}
					],
					"text": "Tobacco smoking status"
				},
				"subject": {
					"reference": "Patient/782b2e26-5cc9-4d06-9057-ebb3f8d18214"
				},
				"effectiveDateTime": "2024-09-03T03:55:11.693235+00:00",
				"performer": [
					{
						"reference": "Practitioner/d6c03673-a863-413a-9f56-91fba4936d15",
						"display": "Practitioner"
					}
				],
				"valueCodeableConcept": {
					"coding": [
						{
							"system": "http://snomed.info/sct",
							"code": "8392000",
							"display": "Non-smoker (finding)"
						}
					],
					"text": "Non-smoker (finding)"
				}
			}
		},
		{
			"fullUrl": "http://example.org/Practitioner/d6c03673-a863-413a-9f56-91fba4936d15",
			"resource": {
				"resourceType": "Practitioner",
				"id": "d6c03673-a863-413a-9f56-91fba4936d15",
				"meta": {
					"profile": [
						"http://hl7.org/fhir/us/core/StructureDefinition/us-core-practitioner"
					]
				},
				"text": {
					"status": "generated",
					"div": "<div xmlns=\"http://www.w3.org/1999/xhtml\">This is a simple narrative with only plain text</div>"
				},
				"identifier": [
					{
						"system": "http://hl7.org/fhir/sid/us-npi",
						"value": "5669436284"
					}
				],
				"name": [
					{
						"use": "official",
						"family": "Duran",
						"given": [
							"George"
						]
					}
				]
			}
		},
		{
			"fullUrl": "http://example.org/Organization/3e8d7a51-eab1-4d8a-9df8-04595ca1cda2",
			"resource": {
				"resourceType": "Organization",
				"id": "3e8d7a51-eab1-4d8a-9df8-04595ca1cda2",
				"meta": {
					"profile": [
						"http://hl7.org/fhir/us/ph-library/StructureDefinition/us-ph-organization"
					]
				},
				"text": {
					"status": "generated",
					"div": "<div xmlns=\"http://www.w3.org/1999/xhtml\">This is a simple narrative with only plain text</div>"
				},
				"active": true,
				"name": "Hospital D",
				"telecom": [
					{
						"system": "phone",
						"value": "(+1) 734-677-7777"
					}
				],
				"address": [
					{
						"use": "work",
						"line": [
							"4171 Young Expressway Suite 203"
						],
						"state": "VT",
						"country": "US"
					}
				]
			}
		},
		{
			"fullUrl": "http://example.org/Encounter/ec0b27ad-5cd7-4604-9b07-52c528461b92",
			"resource": {
				"resourceType": "Encounter",
				"id": "ec0b27ad-5cd7-4604-9b07-52c528461b92",
				"meta": {
					"profile": [
						"http://hl7.org/fhir/us/ph-library/StructureDefinition/us-ph-encounter"
					]
				},
				"text": {
					"status": "generated",
					"div": "<div xmlns=\"http://www.w3.org/1999/xhtml\">This is a simple narrative with only plain text</div>"
				},
				"status": "finished",
				"class": {
					"system": "http://terminology.hl7.org/CodeSystem/v3-ActCode",
					"code": "AMB",
					"display": "ambulatory"
				},
				"type": [
					{
						"coding": [
							{
								"system": "http://www.ama-assn.org/go/cpt",
								"code": "99213",
								"display": "Office or other outpatient visit for the evaluation and management of an established patient, which requires a medically appropriate history and/or examination and low level of medical decision making. When using time for code selection, 20-29 minutes of total time is spent on the date of the encounter."
							}
						],
						"text": "Office Visit"
					}
				],
				"subject": {
					"reference": "Patient/782b2e26-5cc9-4d06-9057-ebb3f8d18214"
				},
				"participant": [
					{
						"individual": {
							"reference": "Practitioner/d6c03673-a863-413a-9f56-91fba4936d15"
						}
					}
				],
				"period": {
					"start": "2024-01-05T17:33:32-04:00",
					"end": "2024-05-06T00:36:01-04:00"
				},
				"location": [
					{
						"location": {
							"reference": "Location/d1636409-8269-4758-9130-20daf48d02f6",
							"display": "Clinic Bldg A, Salem Medical Center, 4444 Healthcare Drive, Ann Arbor MI, 99999"
						}
					}
				],
				"serviceProvider": {
					"reference": "Organization/3e8d7a51-eab1-4d8a-9df8-04595ca1cda2"
				}
			}
		},
		{
			"fullUrl": "http://example.org/Location/d1636409-8269-4758-9130-20daf48d02f1",
			"resource": {
				"resourceType": "Location",
				"id": "d1636409-8269-4758-9130-20daf48d02f1",
				"meta": {
					"profile": [
						"http://hl7.org/fhir/us/ph-library/StructureDefinition/us-ph-location"
					]
				},
				"text": {
					"status": "generated",
					"div": "<div xmlns=\"http://www.w3.org/1999/xhtml\">This is a simple narrative with only plain text</div>"
				},
				"identifier": [
					{
						"system": "http://hl7.org/fhir/sid/us-npi",
						"value": "1063494177"
					}
				],
				"status": "active",
				"name": "Clinic Bldg A, Salem Medical Center",
				"type": [
					{
						"coding": [
							{
								"system": "http://terminology.hl7.org/CodeSystem/v3-RoleCode",
								"code": "HOSP",
								"display": "Hospital"
							}
						]
					}
				],
				"telecom": [
					{
						"system": "phone",
						"value": "(+1) (555)555-3001"
					},
					{
						"system": "fax",
						"value": "(+1) (555)555-3002"
					},
					{
						"system": "email",
						"value": "mail@smc.org"
					}
				],
				"address": {
					"line": [
						"Clinic Bldg A",
						"4444 Healthcare Drive"
					],
					"city": "Ann Arbor",
					"state": "MI",
					"postalCode": "99999"
				},
				"managingOrganization": {
					"reference": "Organization/3e8d7a51-eab1-4d8a-9df8-04595ca1cda2"
				}
			}
		},
		{
			"fullUrl": "http://example.org/Condition/cbca62ef-fbf4-4799-9f79-8a82da5171f8",
			"resource": {
				"resourceType": "Condition",
				"id": "cbca62ef-fbf4-4799-9f79-8a82da5171f8",
				"meta": {
					"profile": [
						"http://hl7.org/fhir/us/ph-library/StructureDefinition/us-ph-condition-encounter-diagnosis"
					]
				},
				"text": {
					"status": "generated",
					"div": "<div xmlns=\"http://www.w3.org/1999/xhtml\">This is a simple narrative with only plain text</div>"
				},
				"clinicalStatus": {
					"coding": [
						{
							"system": "http://terminology.hl7.org/CodeSystem/condition-clinical",
							"code": "active",
							"display": "Active"
						}
					]
				},
				"verificationStatus": {
					"coding": [
						{
							"system": "http://terminology.hl7.org/CodeSystem/condition-ver-status",
							"code": "confirmed",
							"display": "Confirmed"
						}
					]
				},
				"category": [
					{
						"coding": [
							{
								"system": "http://terminology.hl7.org/CodeSystem/condition-category",
								"code": "encounter-diagnosis",
								"display": "Encounter Diagnosis"
							}
						]
					}
				],
				"code": {
					"coding": [
						{
							"system": "http://hl7.org/fhir/sid/icd-10-cm",
							"code": "A54.03",
							"display": "Gonococcal cervicitis, unspecified"
						}
					],
					"text": "Gonococcal cervicitis, unspecified"
				},
				"subject": {
					"reference": "Patient/782b2e26-5cc9-4d06-9057-ebb3f8d18214"
				},
				"encounter": {
					"reference": "Encounter/ec0b27ad-5cd7-4604-9b07-52c528461b92"
				},
				"recordedDate": "2024-05-06T19:08:18-04:00"
			}
		},
		{
			"fullUrl": "http://example.org/MedicationRequest/4832cb14-1ed9-4a75-9c4d-d0a708e3579f",
			"resource": {
				"resourceType": "MedicationRequest",
				"id": "4832cb14-1ed9-4a75-9c4d-d0a708e3579f",
				"meta": {
					"profile": [
						"http://hl7.org/fhir/us/core/StructureDefinition/us-core-medicationrequest"
					]
				},
				"text": {
					"status": "generated",
					"div": "<div xmlns=\"http://www.w3.org/1999/xhtml\">This is a simple narrative with only plain text</div>"
				},
				"status": "completed",
				"intent": "order",
				"medicationCodeableConcept": {
					"coding": [
						{
							"system": "http://www.nlm.nih.gov/research/umls/rxnorm",
							"code": "309090",
							"display": "ceftriaxone 100 MG/ML Injectable Solution"
						}
					],
					"text": "ceftriaxone 100 MG/ML Injectable Solution"
				},
				"subject": {
					"reference": "Patient/782b2e26-5cc9-4d06-9057-ebb3f8d18214"
				},
				"encounter": {
					"reference": "Encounter/ec0b27ad-5cd7-4604-9b07-52c528461b92"
				},
				"authoredOn": "2024-05-02T17:49:29-04:00",
				"requester": {
					"reference": "Practitioner/d6c03673-a863-413a-9f56-91fba4936d15"
				},
				"reasonCode": [
					{
						"coding": [
							{
								"system": "http://hl7.org/fhir/sid/icd-10-cm",
								"code": "A54.03",
								"display": "Gonococcal cervicitis, unspecified"
							}
						],
						"text": "Gonococcal cervicitis, unspecified"
					},
					{
						"coding": [
							{
								"system": "http://snomed.info/sct",
								"code": "236682002",
								"display": "Gonococcal urethritis"
							}
						],
						"text": "Gonococcal urethritis"
					}
				],
				"reasonReference": [
					{
						"reference": "Condition/cbca62ef-fbf4-4799-9f79-8a82da5171f8"
					}
				],
				"dosageInstruction": [
					{
						"text": "IM 500mg/single dose"
					}
				]
			}
		},
		{
			"fullUrl": "http://example.org/Specimen/c589367d-320d-4f97-8001-5b5838c8a622",
			"resource": {
				"resourceType": "Specimen",
				"id": "c589367d-320d-4f97-8001-5b5838c8a622",
				"meta": {
					"profile": [
						"http://hl7.org/fhir/us/ph-library/StructureDefinition/us-ph-specimen"
					]
				},
				"text": {
					"status": "generated",
					"div": "<div xmlns=\"http://www.w3.org/1999/xhtml\">This is a simple narrative with only plain text</div>"
				},
				"type": {
					"coding": [
						{
							"system": "http://terminology.hl7.org/CodeSystem/v2-0487",
							"code": "GENV",
							"display": "Genital vaginal"
						}
					]
				},
				"subject": {
					"reference": "Patient/782b2e26-5cc9-4d06-9057-ebb3f8d18214"
				}
			}
		},
		{
			"fullUrl": "http://example.org/Observation/d8e92c62-9232-4e4e-8e48-ea52dcfb10df",
			"resource": {
				"resourceType": "Observation",
				"id": "d8e92c62-9232-4e4e-8e48-ea52dcfb10df",
				"meta": {
					"profile": [
						"http://hl7.org/fhir/us/ph-library/StructureDefinition/us-ph-lab-result-observation"
					]
				},
				"text": {
					"status": "generated",
					"div": "<div xmlns=\"http://www.w3.org/1999/xhtml\">This is a simple narrative with only plain text</div>"
				},
				"status": "final",
				"category": [
					{
						"coding": [
							{
								"system": "http://terminology.hl7.org/CodeSystem/observation-category",
								"code": "laboratory",
								"display": "Laboratory"
							}
						]
					}
				],
				"code": {
					"coding": [
						{
							"system": "http://loinc.org",
							"code": "21415-5",
							"display": "Neisseria gonorrhoeae DNA [Presence] in Urethra by NAA with probe detection"
						}
					]
				},
				"subject": {
					"reference": "Patient/782b2e26-5cc9-4d06-9057-ebb3f8d18214"
				},
				"encounter": {
					"reference": "Encounter/ec0b27ad-5cd7-4604-9b07-52c528461b92"
				},
				"effectiveDateTime": "2024-07-03",
				"performer": [
					{
						"reference": "Practitioner/d6c03673-a863-413a-9f56-91fba4936d15",
						"display": "Practitioner"
					}
				],
				"valueCodeableConcept": {
					"coding": [
						{
							"system": "http://snomed.info/sct",
							"code": "260373001",
							"display": "Detected"
						}
					]
				},
				"interpretation": [
					{
						"coding": [
							{
								"system": "http://terminology.hl7.org/CodeSystem/v3-ObservationInterpretation",
								"code": "POS",
								"display": "Positive"
							}
						]
					}
				],
				"specimen": {
					"reference": "Specimen/c589367d-320d-4f97-8001-5b5838c8a622"
				}
			}
		},
		{
			"fullUrl": "http://example.org/Observation/df07fa4b-9f61-47ce-adcb-3f11870313c0",
			"resource": {
				"resourceType": "Observation",
				"id": "df07fa4b-9f61-47ce-adcb-3f11870313c0",
				"meta": {
					"profile": [
						"http://hl7.org/fhir/us/ph-library/StructureDefinition/us-ph-pregnancy-status-observation"
					]
				},
				"text": {
					"status": "generated",
					"div": "<div xmlns=\"http://www.w3.org/1999/xhtml\">This is a simple narrative with only plain text</div>"
				},
				"status": "final",
				"category": [
					{
						"coding": [
							{
								"system": "http://terminology.hl7.org/CodeSystem/observation-category",
								"code": "social-history",
								"display": "Social History"
							}
						]
					}
				],
				"code": {
					"coding": [
						{
							"system": "http://loinc.org",
							"code": "82810-3",
							"display": "Pregnancy status"
						}
					],
					"text": "Pregnancy status"
				},
				"subject": {
					"reference": "Patient/782b2e26-5cc9-4d06-9057-ebb3f8d18214"
				},
				"effectiveDateTime": "2024-09-03T03:55:11.697296+00:00",
				"performer": [
					{
						"reference": "Practitioner/d6c03673-a863-413a-9f56-91fba4936d15",
						"display": "Practitioner"
					}
				],
				"valueCodeableConcept": {
					"coding": [
						{
							"system": "http://snomed.info/sct",
							"code": "77386006",
							"display": "Pregnancy (finding)"
						}
					],
					"text": "Pregnancy (finding)"
				}
			}
		}
	]
}