{
	"resourceType": "Bundle",
	"id": "963f5af9-2001-41f2-a06c-0d0a731030df",
	"meta": {
		"profile": [
			"http://hl7.org/fhir/us/ph-library/StructureDefinition/us-ph-content-bundle"
		]
	},
	"type": "collection",
	"entry": [
		{
			"fullUrl": "http://example.org/Patient/9433c2c7-e0d9-48ec-82cb-6bc2296132b0",
			"resource": {
				"resourceType": "Patient",
				"id": "9433c2c7-e0d9-48ec-82cb-6bc2296132b0",
				"meta": {
					"profile": [
						"http://hl7.org/fhir/us/ph-library/StructureDefinition/us-ph-patient"
					]
				},
				"text": {
					"status": "generated",
					"div": "<div xmlns=\"http://www.w3.org/1999/xhtml\">This is a simple narrative with only plain text</div>"
				},
				"extension": [
					{
						"extension": [
							{
								"url": "ombCategory",
								"valueCoding": {
									"system": "urn:oid:2.16.840.1.113883.6.238",
									"code": "1002-5",
									"display": "American Indian or Alaska Native"
								}
							},
							{
								"url": "text",
								"valueString": "American Indian or Alaska Native"
							}
						],
						"url": "http://hl7.org/fhir/us/core/StructureDefinition/us-core-race"
					},
					{
						"extension": [
							{
								"url": "ombCategory",
								"valueCoding": {
									"system": "urn:oid:2.16.840.1.113883.6.238",
									"code": "2186-5",
									"display": "Not Hispanic or Latino"
								}
							},
							{
								"url": "text",
								"valueString": "Not Hispanic or Latino"
							}
						],
						"url": "http://hl7.org/fhir/us/core/StructureDefinition/us-core-ethnicity"
					}
				],
				"identifier": [
					{
						"use": "usual",
						"type": {
							"coding": [
								{
									"system": "http://terminology.hl7.org/CodeSystem/v2-0203",
									"code": "MR",
									"display": "Medical Record Number"
								}
							],
							"text": "Medical Record Number"
						},
						"system": "http://hospital.smarthealthit.org",
						"value": "564570"
					}
				],
				"name": [
					{
						"use": "official",
						"family": "Peterson",
						"given": [
							"Amy",
							"V"
						]
					}
				],
				"telecom": [
					{
						"system": "phone",
						"value": "517-425-1399",
						"use": "home"
					}
				],
				"gender": "female",
				"birthDate": "1982-07-23",
				"deceasedBoolean": false,
				"address": [
					{
						"use": "home",
						"line": [
							"49 Meadow St Mounds OK"
						],
						"city": "St. Mounds",
						"state": "OK",
						"country": "US"
					}
				],
				"communication": [
					{
						"language": {
							"coding": [
								{
									"system": "urn:ietf:bcp:47",
									"code": "en",
									"display": "English"
								}
							]
						}
					}
				]
			}
		},
		{
			"fullUrl": "http://example.org/Observation/0420bf6f-beb8-4e56-88d1-1869087a36f5",
			"resource": {
				"resourceType": "Observation",
				"id": "0420bf6f-beb8-4e56-88d1-1869087a36f5",
				"meta": {
					"profile": [
						"http://hl7.org/fhir/us/core/StructureDefinition/us-core-smokingstatus"
					]
				},
				"text": {
					"status": "generated",
					"div": "<div xmlns=\"http://www.w3.org/1999/xhtml\">This is a simple narrative with only plain text</div>"
				},
				"status": "final",
				"category": [
					{
						"coding": [
							{
								"system": "http://terminology.hl7.org/CodeSystem/observation-category",
								"code": "social-history",
								"display": "Social History"
							}
						]
					}
				],
				"code": {
					"coding": [
						{
							"system": "http://loinc.org",
							"code": "72166-2",
							"display": "Tobacco smoking status"
						}
					],
					"text": "Tobacco smoking status"
				},
				"subject": {
					"reference": "Patient/9433c2c7-e0d9-48ec-82cb-6bc2296132b0"
				},
				"effectiveDateTime": "2024-09-03T03:55:08.392293+00:00",
				"performer": [
					{
						"reference": "Practitioner/43278beb-6ca5-493c-8b7f-2b2b5cb4c994",
						"display": "Practitioner"
					}
				],
				"valueCodeableConcept": {
					"coding": [
						{
							"system": "http://snomed.info/sct",
							"code": "8392000",
							"display": "Non-smoker (finding)"
						}
					],
					"text": "Non-smoker (finding)"
				}
			}
		},
		{
			"fullUrl": "http://example.org/Practitioner/43278beb-6ca5-493c-8b7f-2b2b5cb4c994",
			"resource": {
				"resourceType": "Practitioner",
				"id": "43278beb-6ca5-493c-8b7f-2b2b5cb4c994",
				"meta": {
					"profile": [
						"http://hl7.org/fhir/us/core/StructureDefinition/us-core-practitioner"
					]
				},
				"text": {
					"status": "generated",
					"div": "<div xmlns=\"http://www.w3.org/1999/xhtml\">This is a simple narrative with only plain text</div>"
				},
				"identifier": [
					{
						"system": "http://hl7.org/fhir/sid/us-npi",
						"value": "5031205565"
					}
				],
				"name": [
					{
						"use": "official",
						"family": "Taylor",
						"given": [
							"Vincent"
						]
					}
				]
			}
		},
		{
			"fullUrl": "http://example.org/Organization/46281dcd-e59e-48f1-a4c2-776b5336e762",
			"resource": {
				"resourceType": "Organization",
				"id": "46281dcd-e59e-48f1-a4c2-776b5336e762",
				"meta": {
					"profile": [
						"http://hl7.org/fhir/us/ph-library/StructureDefinition/us-ph-organization"
					]
				},
				"text": {
					"status": "generated",
					"div": "<div xmlns=\"http://www.w3.org/1999/xhtml\">This is a simple narrative with only plain text</div>"
				},
				"active": true,
				"name": "Hospital A",
				"telecom": [
					{
						"system": "phone",
						"value": "(+1) 734-677-7777"
					}
				],
				"address": [
					{
						"use": "work",
						"line": [
							"035 Heath Spring Apt. 267"
						],
						"state": "MD",
						"country": "US"
					}
				]
			}
		},
		{
			"fullUrl": "http://example.org/Encounter/e0e41b21-b08d-455c-aafa-4e37db69e6a3",
			"resource": {
				"resourceType": "Encounter",
				"id": "e0e41b21-b08d-455c-aafa-4e37db69e6a3",
				"meta": {
					"profile": [
						"http://hl7.org/fhir/us/ph-library/StructureDefinition/us-ph-encounter"
					]
				},
				"text": {
					"status": "generated",
					"div": "<div xmlns=\"http://www.w3.org/1999/xhtml\">This is a simple narrative with only plain text</div>"
				},
				"status": "finished",
				"class": {
					"system": "http://terminology.hl7.org/CodeSystem/v3-ActCode",
					"code": "AMB",
					"display": "ambulatory"
				},
				"type": [
					{
						"coding": [
							{
								"system": "http://www.ama-assn.org/go/cpt",
								"code": "99213",
								"display": "Office or other outpatient visit for the evaluation and management of an established patient, which requires a medically appropriate history and/or examination and low level of medical decision making. When using time for code selection, 20-29 minutes of total time is spent on the date of the encounter."
							}
						],
						"text": "Office Visit"
					}
				],
				"subject": {
					"reference": "Patient/9433c2c7-e0d9-48ec-82cb-6bc2296132b0"
				},
				"participant": [
					{
						"individual": {
							"reference": "Practitioner/43278beb-6ca5-493c-8b7f-2b2b5cb4c994"
						}
					}
				],
				"period": {
					"start": "2024-06-19T13:55:40-04:00",
					"end": "2024-06-19T17:38:54-04:00"
				},
				"location": [
					{
						"location": {
							"reference": "Location/d1636409-8269-4758-9130-20daf48d02f6",
							"display": "Clinic Bldg A, Salem Medical Center, 4444 Healthcare Drive, Ann Arbor MI, 99999"
						}
					}
				],
				"serviceProvider": {
					"reference": "Organization/46281dcd-e59e-48f1-a4c2-776b5336e762"
				}
			}
		},
		{
			"fullUrl": "http://example.org/Location/d1636409-8269-4758-9130-20daf48d02f1",
			"resource": {
				"resourceType": "Location",
				"id": "d1636409-8269-4758-9130-20daf48d02f1",
				"meta": {
					"profile": [
						"http://hl7.org/fhir/us/ph-library/StructureDefinition/us-ph-location"
					]
				},
				"text": {
					"status": "generated",
					"div": "<div xmlns=\"http://www.w3.org/1999/xhtml\">This is a simple narrative with only plain text</div>"
				},
				"identifier": [
					{
						"system": "http://hl7.org/fhir/sid/us-npi",
						"value": "1063494177"
					}
				],
				"status": "active",
				"name": "Clinic Bldg A, Salem Medical Center",
				"type": [
					{
						"coding": [
							{
								"system": "http://terminology.hl7.org/CodeSystem/v3-RoleCode",
								"code": "HOSP",
								"display": "Hospital"
							}
						]
					}
				],
				"telecom": [
					{
						"system": "phone",
						"value": "(+1) (555)555-3001"
					},
					{
						"system": "fax",
						"value": "(+1) (555)555-3002"
					},
					{
						"system": "email",
						"value": "mail@smc.org"
					}
				],
				"address": {
					"line": [
						"Clinic Bldg A",
						"4444 Healthcare Drive"
					],
					"city": "Ann Arbor",
					"state": "MI",
					"postalCode": "99999"
				},
				"managingOrganization": {
					"reference": "Organization/46281dcd-e59e-48f1-a4c2-776b5336e762"
				}
			}
		},
		{
			"fullUrl": "http://example.org/Condition/83e80b64-0573-4c78-9692-16cb95a5116b",
			"resource": {
				"resourceType": "Condition",
				"id": "83e80b64-0573-4c78-9692-16cb95a5116b",
				"meta": {
					"profile": [
						"http://hl7.org/fhir/us/ph-library/StructureDefinition/us-ph-condition-encounter-diagnosis"
					]
				},
				"text": {
					"status": "generated",
					"div": "<div xmlns=\"http://www.w3.org/1999/xhtml\">This is a simple narrative with only plain text</div>"
				},
				"clinicalStatus": {
					"coding": [
						{
							"system": "http://terminology.hl7.org/CodeSystem/condition-clinical",
							"code": "active",
							"display": "Active"
						}
					]
				},
				"verificationStatus": {
					"coding": [
						{
							"system": "http://terminology.hl7.org/CodeSystem/condition-ver-status",
							"code": "confirmed",
							"display": "Confirmed"
						}
					]
				},
				"category": [
					{
						"coding": [
							{
								"system": "http://terminology.hl7.org/CodeSystem/condition-category",
								"code": "encounter-diagnosis",
								"display": "Encounter Diagnosis"
							}
						]
					}
				],
				"code": {
					"coding": [
						{
							"system": "http://hl7.org/fhir/sid/icd-10-cm",
							"code": "A55",
							"display": "Chlamydial lymphogranuloma (venereum)"
						}
					],
					"text": "Chlamydial lymphogranuloma (venereum)"
				},
				"subject": {
					"reference": "Patient/9433c2c7-e0d9-48ec-82cb-6bc2296132b0"
				},
				"encounter": {
					"reference": "Encounter/e0e41b21-b08d-455c-aafa-4e37db69e6a3"
				},
				"recordedDate": "2024-06-30T01:00:10-04:00"
			}
		},
		{
			"fullUrl": "http://example.org/MedicationRequest/c6862b66-ac20-490c-97f4-df0e7ce4759b",
			"resource": {
				"resourceType": "MedicationRequest",
				"id": "c6862b66-ac20-490c-97f4-df0e7ce4759b",
				"meta": {
					"profile": [
						"http://hl7.org/fhir/us/core/StructureDefinition/us-core-medicationrequest"
					]
				},
				"text": {
					"status": "generated",
					"div": "<div xmlns=\"http://www.w3.org/1999/xhtml\">This is a simple narrative with only plain text</div>"
				},
				"status": "completed",
				"intent": "order",
				"medicationCodeableConcept": {
					"coding": [
						{
							"system": "http://www.nlm.nih.gov/research/umls/rxnorm",
							"code": "308460",
							"display": "azithromycin 250 MG Oral Tablet"
						}
					],
					"text": "azithromycin 250 MG Oral Tablet"
				},
				"subject": {
					"reference": "Patient/9433c2c7-e0d9-48ec-82cb-6bc2296132b0"
				},
				"encounter": {
					"reference": "Encounter/e0e41b21-b08d-455c-aafa-4e37db69e6a3"
				},
				"authoredOn": "2024-01-08T03:23:48-04:00",
				"requester": {
					"reference": "Practitioner/43278beb-6ca5-493c-8b7f-2b2b5cb4c994"
				},
				"reasonCode": [
					{
						"coding": [
							{
								"system": "http://hl7.org/fhir/sid/icd-10-cm",
								"code": "A55",
								"display": "Chlamydial lymphogranuloma (venereum)"
							}
						],
						"text": "Chlamydial lymphogranuloma (venereum)"
					},
					{
						"coding": [
							{
								"system": "http://snomed.info/sct",
								"code": "240589008",
								"display": "Chlamydia trachomatis infection (disorder)"
							}
						],
						"text": "Chlamydia trachomatis infection (disorder)"
					}
				],
				"reasonReference": [
					{
						"reference": "Condition/83e80b64-0573-4c78-9692-16cb95a5116b"
					}
				],
				"dosageInstruction": [
					{
						"text": "Oral 250 MG / 1 each"
					}
				]
			}
		},
		{
			"fullUrl": "http://example.org/Specimen/f699e2ce-dad0-4d07-9cd6-de4f14983469",
			"resource": {
				"resourceType": "Specimen",
				"id": "f699e2ce-dad0-4d07-9cd6-de4f14983469",
				"meta": {
					"profile": [
						"http://hl7.org/fhir/us/ph-library/StructureDefinition/us-ph-specimen"
					]
				},
				"text": {
					"status": "generated",
					"div": "<div xmlns=\"http://www.w3.org/1999/xhtml\">This is a simple narrative with only plain text</div>"
				},
				"type": {
					"coding": [
						{
							"system": "http://terminology.hl7.org/CodeSystem/v2-0487",
							"code": "BLD",
							"display": "Whole blood"
						}
					]
				},
				"subject": {
					"reference": "Patient/9433c2c7-e0d9-48ec-82cb-6bc2296132b0"
				}
			}
		},
		{
			"fullUrl": "http://example.org/Observation/c81bd566-3108-47e9-bd19-f7ef3477b010",
			"resource": {
				"resourceType": "Observation",
				"id": "c81bd566-3108-47e9-bd19-f7ef3477b010",
				"meta": {
					"profile": [
						"http://hl7.org/fhir/us/ph-library/StructureDefinition/us-ph-lab-result-observation"
					]
				},
				"text": {
					"status": "generated",
					"div": "<div xmlns=\"http://www.w3.org/1999/xhtml\">This is a simple narrative with only plain text</div>"
				},
				"status": "final",
				"category": [
					{
						"coding": [
							{
								"system": "http://terminology.hl7.org/CodeSystem/observation-category",
								"code": "laboratory",
								"display": "Laboratory"
							}
						]
					}
				],
				"code": {
					"coding": [
						{
							"system": "http://loinc.org",
							"code": "31768-5",
							"display": "Chlamydia trachomatis Ag [Presence] in Blood"
						}
					]
				},
				"subject": {
					"reference": "Patient/9433c2c7-e0d9-48ec-82cb-6bc2296132b0"
				},
				"encounter": {
					"reference": "Encounter/e0e41b21-b08d-455c-aafa-4e37db69e6a3"
				},
				"effectiveDateTime": "2024-06-30",
				"performer": [
					{
						"reference": "Practitioner/43278beb-6ca5-493c-8b7f-2b2b5cb4c994",
						"display": "Practitioner"
					}
				],
				"valueCodeableConcept": {
					"coding": [
						{
							"system": "http://snomed.info/sct",
							"code": "260373001",
							"display": "Detected"
						}
					]
				},
				"interpretation": [
					{
						"coding": [
							{
								"system": "http://terminology.hl7.org/CodeSystem/v3-ObservationInterpretation",
								"code": "POS",
								"display": "Positive"
							}
						]
					}
				],
				"specimen": {
					"reference": "Specimen/f699e2ce-dad0-4d07-9cd6-de4f14983469"
				}
			}
		},
		{
			"fullUrl": "http://example.org/Observation/748fffcf-2d61-4fcf-b7de-726f5efb74ef",
			"resource": {
				"resourceType": "Observation",
				"id": "748fffcf-2d61-4fcf-b7de-726f5efb74ef",
				"meta": {
					"profile": [
						"http://hl7.org/fhir/us/ph-library/StructureDefinition/us-ph-pregnancy-status-observation"
					]
				},
				"text": {
					"status": "generated",
					"div": "<div xmlns=\"http://www.w3.org/1999/xhtml\">This is a simple narrative with only plain text</div>"
				},
				"status": "final",
				"category": [
					{
						"coding": [
							{
								"system": "http://terminology.hl7.org/CodeSystem/observation-category",
								"code": "social-history",
								"display": "Social History"
							}
						]
					}
				],
				"code": {
					"coding": [
						{
							"system": "http://loinc.org",
							"code": "82810-3",
							"display": "Pregnancy status"
						}
					],
					"text": "Pregnancy status"
				},
				"subject": {
					"reference": "Patient/9433c2c7-e0d9-48ec-82cb-6bc2296132b0"
				},
				"effectiveDateTime": "2024-09-03T03:55:08.395364+00:00",
				"performer": [
					{
						"reference": "Practitioner/43278beb-6ca5-493c-8b7f-2b2b5cb4c994",
						"display": "Practitioner"
					}
				],
				"valueCodeableConcept": {
					"coding": [
						{
							"system": "http://snomed.info/sct",
							"code": "60001007",
							"display": "Not pregnant (finding)"
						}
					],
					"text": "Not pregnant (finding)"
				}
			}
		}
	]
}