{
	"resourceType": "Bundle",
	"id": "b8a2f849-7c5a-40c7-861f-b60bc3680b9c",
	"meta": {
		"profile": [
			"http://hl7.org/fhir/us/ph-library/StructureDefinition/us-ph-content-bundle"
		]
	},
	"type": "collection",
	"entry": [
		{
			"fullUrl": "http://example.org/Patient/b63596b1-3961-4d9c-a682-48629bf25005",
			"resource": {
				"resourceType": "Patient",
				"id": "b63596b1-3961-4d9c-a682-48629bf25005",
				"meta": {
					"profile": [
						"http://hl7.org/fhir/us/ph-library/StructureDefinition/us-ph-patient"
					]
				},
				"text": {
					"status": "generated",
					"div": "<div xmlns=\"http://www.w3.org/1999/xhtml\">This is a simple narrative with only plain text</div>"
				},
				"extension": [
					{
						"extension": [
							{
								"url": "ombCategory",
								"valueCoding": {
									"system": "urn:oid:2.16.840.1.113883.6.238",
									"code": "2054-5",
									"display": "Black or African American"
								}
							},
							{
								"url": "text",
								"valueString": "Black or African American"
							}
						],
						"url": "http://hl7.org/fhir/us/core/StructureDefinition/us-core-race"
					},
					{
						"extension": [
							{
								"url": "ombCategory",
								"valueCoding": {
									"system": "urn:oid:2.16.840.1.113883.6.238",
									"code": "2186-5",
									"display": "Not Hispanic or Latino"
								}
							},
							{
								"url": "text",
								"valueString": "Not Hispanic or Latino"
							}
						],
						"url": "http://hl7.org/fhir/us/core/StructureDefinition/us-core-ethnicity"
					}
				],
				"identifier": [
					{
						"use": "usual",
						"type": {
							"coding": [
								{
									"system": "http://terminology.hl7.org/CodeSystem/v2-0203",
									"code": "MR",
									"display": "Medical Record Number"
								}
							],
							"text": "Medical Record Number"
						},
						"system": "http://hospital.smarthealthit.org",
						"value": "463698"
					}
				],
				"name": [
					{
						"use": "official",
						"family": "Pilcow",
						"given": [
							"Timothy",
							"w"
						]
					}
				],
				"telecom": [
					{
						"system": "phone",
						"value": "517-425-1399",
						"use": "home"
					}
				],
				"gender": "female",
				"birthDate": "2001-02-22",
				"deceasedBoolean": false,
				"address": [
					{
						"use": "home",
						"line": [
							"24 Jump Street"
						],
						"city": "Springfield",
						"state": "GA",
						"country": "US"
					}
				],
				"communication": [
					{
						"language": {
							"coding": [
								{
									"system": "urn:ietf:bcp:47",
									"code": "en",
									"display": "English"
								}
							]
						}
					}
				]
			}
		},
		{
			"fullUrl": "http://example.org/Observation/0d200d57-b57a-45aa-b8c5-0603f4fd7ad4",
			"resource": {
				"resourceType": "Observation",
				"id": "0d200d57-b57a-45aa-b8c5-0603f4fd7ad4",
				"meta": {
					"profile": [
						"http://hl7.org/fhir/us/core/StructureDefinition/us-core-simple-observation"
					]
				},
				"text": {
					"status": "generated",
					"div": "<div xmlns=\"http://www.w3.org/1999/xhtml\">This is a simple narrative with only plain text</div>"
				},
				"status": "final",
				"category": [
					{
						"coding": [
							{
								"system": "http://terminology.hl7.org/CodeSystem/observation-category",
								"code": "social-history",
								"display": "Social History"
							}
						]
					}
				],
				"code": {
					"coding": [
						{
							"system": "http://loinc.org",
							"code": "85736-7",
							"display": "Number of sexual partners in last 12 months"
						}
					],
					"text": "Number of sexual partners in last 12 months"
				},
				"subject": {
					"reference": "Patient/b63596b1-3961-4d9c-a682-48629bf25005"
				},
				"effectiveDateTime": "2024-09-03T03:55:30.323615+00:00",
				"performer": [
					{
						"reference": "Practitioner/857c7e1a-546c-4517-962e-ec3d7a3a746d",
						"display": "Practitioner"
					}
				],
				"valueCodeableConcept": {
					"coding": [
						{
							"system": "http://snomed.info/sct",
							"code": "228460004",
							"display": "Multiple current sexual partners (finding)"
						}
					],
					"text": "Multiple current sexual partners (finding)"
				}
			}
		},
		{
			"fullUrl": "http://example.org/Practitioner/857c7e1a-546c-4517-962e-ec3d7a3a746d",
			"resource": {
				"resourceType": "Practitioner",
				"id": "857c7e1a-546c-4517-962e-ec3d7a3a746d",
				"meta": {
					"profile": [
						"http://hl7.org/fhir/us/core/StructureDefinition/us-core-practitioner"
					]
				},
				"text": {
					"status": "generated",
					"div": "<div xmlns=\"http://www.w3.org/1999/xhtml\">This is a simple narrative with only plain text</div>"
				},
				"identifier": [
					{
						"system": "http://hl7.org/fhir/sid/us-npi",
						"value": "3418390902"
					}
				],
				"name": [
					{
						"use": "official",
						"family": "Bulger",
						"given": [
							"Roxanne"
						]
					}
				]
			}
		},
		{
			"fullUrl": "http://example.org/Organization/29f8a0ed-e7de-4af5-a294-b6dc678ed7ea",
			"resource": {
				"resourceType": "Organization",
				"id": "29f8a0ed-e7de-4af5-a294-b6dc678ed7ea",
				"meta": {
					"profile": [
						"http://hl7.org/fhir/us/ph-library/StructureDefinition/us-ph-organization"
					]
				},
				"text": {
					"status": "generated",
					"div": "<div xmlns=\"http://www.w3.org/1999/xhtml\">This is a simple narrative with only plain text</div>"
				},
				"active": true,
				"name": "Hospital PR",
				"telecom": [
					{
						"system": "phone",
						"value": "(+1) 734-677-7777"
					}
				],
				"address": [
					{
						"use": "work",
						"line": [
							"4446 Chipotle Crescent"
						],
						"state": "GA",
						"country": "US"
					}
				]
			}
		},
		{
			"fullUrl": "http://example.org/Encounter/9147b0e5-e201-4653-8655-0c0a8e57dd86",
			"resource": {
				"resourceType": "Encounter",
				"id": "9147b0e5-e201-4653-8655-0c0a8e57dd86",
				"meta": {
					"profile": [
						"http://hl7.org/fhir/us/ph-library/StructureDefinition/us-ph-encounter"
					]
				},
				"text": {
					"status": "generated",
					"div": "<div xmlns=\"http://www.w3.org/1999/xhtml\">This is a simple narrative with only plain text</div>"
				},
				"status": "finished",
				"class": {
					"system": "http://terminology.hl7.org/CodeSystem/v3-ActCode",
					"code": "AMB",
					"display": "ambulatory"
				},
				"type": [
					{
						"coding": [
							{
								"system": "http://www.ama-assn.org/go/cpt",
								"code": "99213",
								"display": "Office or other outpatient visit for the evaluation and management of an established patient, which requires a medically appropriate history and/or examination and low level of medical decision making. When using time for code selection, 20-29 minutes of total time is spent on the date of the encounter."
							}
						],
						"text": "Office Visit"
					}
				],
				"subject": {
					"reference": "Patient/b63596b1-3961-4d9c-a682-48629bf25005"
				},
				"participant": [
					{
						"individual": {
							"reference": "Practitioner/857c7e1a-546c-4517-962e-ec3d7a3a746d"
						}
					}
				],
				"period": {
					"start": "2024-06-26T13:23:43-04:00",
					"end": "2024-06-26T17:23:43-04:00"
				},
				"location": [
					{
						"location": {
							"reference": "Location/d1636409-8269-4758-9130-20daf48d02f6",
							"display": "Clinic Bldg A, Salem Medical Center, 4444 Healthcare Drive, Ann Arbor MI, 99999"
						}
					}
				],
				"serviceProvider": {
					"reference": "Organization/29f8a0ed-e7de-4af5-a294-b6dc678ed7ea"
				}
			}
		},
		{
			"fullUrl": "http://example.org/Location/d1636409-8269-4758-9130-20daf48d02f1",
			"resource": {
				"resourceType": "Location",
				"id": "d1636409-8269-4758-9130-20daf48d02f1",
				"meta": {
					"profile": [
						"http://hl7.org/fhir/us/ph-library/StructureDefinition/us-ph-location"
					]
				},
				"text": {
					"status": "generated",
					"div": "<div xmlns=\"http://www.w3.org/1999/xhtml\">This is a simple narrative with only plain text</div>"
				},
				"identifier": [
					{
						"system": "http://hl7.org/fhir/sid/us-npi",
						"value": "1063494177"
					}
				],
				"status": "active",
				"name": "Clinic Bldg A, Salem Medical Center",
				"type": [
					{
						"coding": [
							{
								"system": "http://terminology.hl7.org/CodeSystem/v3-RoleCode",
								"code": "HOSP",
								"display": "Hospital"
							}
						]
					}
				],
				"telecom": [
					{
						"system": "phone",
						"value": "(+1) (555)555-3001"
					},
					{
						"system": "fax",
						"value": "(+1) (555)555-3002"
					},
					{
						"system": "email",
						"value": "mail@smc.org"
					}
				],
				"address": {
					"line": [
						"Clinic Bldg A",
						"4444 Healthcare Drive"
					],
					"city": "Ann Arbor",
					"state": "MI",
					"postalCode": "99999"
				},
				"managingOrganization": {
					"reference": "Organization/29f8a0ed-e7de-4af5-a294-b6dc678ed7ea"
				}
			}
		},
		{
			"fullUrl": "http://example.org/Condition/45610736-57ec-4af3-9714-d10696c7060e",
			"resource": {
				"resourceType": "Condition",
				"id": "45610736-57ec-4af3-9714-d10696c7060e",
				"meta": {
					"profile": [
						"http://hl7.org/fhir/us/ph-library/StructureDefinition/us-ph-condition-encounter-diagnosis"
					]
				},
				"text": {
					"status": "generated",
					"div": "<div xmlns=\"http://www.w3.org/1999/xhtml\">This is a simple narrative with only plain text</div>"
				},
				"clinicalStatus": {
					"coding": [
						{
							"system": "http://terminology.hl7.org/CodeSystem/condition-clinical",
							"code": "active",
							"display": "Active"
						}
					]
				},
				"verificationStatus": {
					"coding": [
						{
							"system": "http://terminology.hl7.org/CodeSystem/condition-ver-status",
							"code": "confirmed",
							"display": "Confirmed"
						}
					]
				},
				"category": [
					{
						"coding": [
							{
								"system": "http://terminology.hl7.org/CodeSystem/condition-category",
								"code": "encounter-diagnosis",
								"display": "Encounter Diagnosis"
							}
						]
					}
				],
				"code": {
					"coding": [
						{
							"system": "http://hl7.org/fhir/sid/icd-10-cm",
							"code": "A60.00",
							"display": "Herpesviral infection of urogenital system, unspecified"
						}
					],
					"text": "Herpesviral infection of urogenital system, unspecified"
				},
				"subject": {
					"reference": "Patient/b63596b1-3961-4d9c-a682-48629bf25005"
				},
				"encounter": {
					"reference": "Encounter/9147b0e5-e201-4653-8655-0c0a8e57dd86"
				},
				"recordedDate": "2024-06-26T15:40:00-04:00"
			}
		},
		{
			"fullUrl": "http://example.org/MedicationRequest/4d5ab1bb-96d2-4fa0-bdf5-7e6ac5851c91",
			"resource": {
				"resourceType": "MedicationRequest",
				"id": "4d5ab1bb-96d2-4fa0-bdf5-7e6ac5851c91",
				"meta": {
					"profile": [
						"http://hl7.org/fhir/us/core/StructureDefinition/us-core-medicationrequest"
					]
				},
				"text": {
					"status": "generated",
					"div": "<div xmlns=\"http://www.w3.org/1999/xhtml\">This is a simple narrative with only plain text</div>"
				},
				"status": "completed",
				"intent": "order",
				"medicationCodeableConcept": {
					"coding": [
						{
							"system": "http://www.nlm.nih.gov/research/umls/rxnorm",
							"code": "199193",
							"display": "famciclovir 250 MG Oral Tablet"
						}
					],
					"text": "famciclovir 250 MG Oral Tablet"
				},
				"subject": {
					"reference": "Patient/b63596b1-3961-4d9c-a682-48629bf25005"
				},
				"encounter": {
					"reference": "Encounter/9147b0e5-e201-4653-8655-0c0a8e57dd86"
				},
				"authoredOn": "2024-06-26T19:40:00-04:00",
				"requester": {
					"reference": "Practitioner/857c7e1a-546c-4517-962e-ec3d7a3a746d"
				},
				"reasonCode": [
					{
						"coding": [
							{
								"system": "http://hl7.org/fhir/sid/icd-10-cm",
								"code": "A60.00",
								"display": "Herpesviral infection of urogenital system, unspecified"
							}
						],
						"text": "Herpesviral infection of urogenital system, unspecified"
					},
					{
						"coding": [
							{
								"system": "http://snomed.info/sct",
								"code": "33839006",
								"display": "Genital herpes simplex (disorder)"
							}
						],
						"text": "Genital herpes simplex (disorder)"
					}
				],
				"reasonReference": [
					{
						"reference": "Condition/45610736-57ec-4af3-9714-d10696c7060e"
					}
				],
				"dosageInstruction": [
					{
						"text": "Oral 250 MG"
					}
				]
			}
		},
		{
			"fullUrl": "http://example.org/Specimen/be6a3dd6-07ef-4162-8266-3dd13c64b6f5",
			"resource": {
				"resourceType": "Specimen",
				"id": "be6a3dd6-07ef-4162-8266-3dd13c64b6f5",
				"meta": {
					"profile": [
						"http://hl7.org/fhir/us/ph-library/StructureDefinition/us-ph-specimen"
					]
				},
				"text": {
					"status": "generated",
					"div": "<div xmlns=\"http://www.w3.org/1999/xhtml\">This is a simple narrative with only plain text</div>"
				},
				"type": {
					"coding": [
						{
							"system": "http://terminology.hl7.org/CodeSystem/v2-0487",
							"code": "BLD",
							"display": "Whole blood"
						}
					]
				},
				"subject": {
					"reference": "Patient/b63596b1-3961-4d9c-a682-48629bf25005"
				}
			}
		},
		{
			"fullUrl": "http://example.org/Observation/6d4d69fa-e999-4c9c-b965-063d7d059ae2",
			"resource": {
				"resourceType": "Observation",
				"id": "6d4d69fa-e999-4c9c-b965-063d7d059ae2",
				"meta": {
					"profile": [
						"http://hl7.org/fhir/us/ph-library/StructureDefinition/us-ph-lab-result-observation"
					]
				},
				"text": {
					"status": "generated",
					"div": "<div xmlns=\"http://www.w3.org/1999/xhtml\">This is a simple narrative with only plain text</div>"
				},
				"status": "final",
				"category": [
					{
						"coding": [
							{
								"system": "http://terminology.hl7.org/CodeSystem/observation-category",
								"code": "laboratory",
								"display": "Laboratory"
							}
						]
					}
				],
				"code": {
					"coding": [
						{
							"system": "http://loinc.org",
							"code": "20444-6",
							"display": "Herpes simplex virus 1+2 DNA [Presence] in Specimen by NAA with probe detection"
						}
					]
				},
				"subject": {
					"reference": "Patient/b63596b1-3961-4d9c-a682-48629bf25005"
				},
				"encounter": {
					"reference": "Encounter/9147b0e5-e201-4653-8655-0c0a8e57dd86"
				},
				"effectiveDateTime": "2024-06-14",
				"performer": [
					{
						"reference": "Practitioner/857c7e1a-546c-4517-962e-ec3d7a3a746d",
						"display": "Practitioner"
					}
				],
				"valueCodeableConcept": {
					"coding": [
						{
							"system": "http://snomed.info/sct",
							"code": "260373001",
							"display": "Detected"
						}
					]
				},
				"interpretation": [
					{
						"coding": [
							{
								"system": "http://terminology.hl7.org/CodeSystem/v3-ObservationInterpretation",
								"code": "POS",
								"display": "Positive"
							}
						]
					}
				],
				"specimen": {
					"reference": "Specimen/be6a3dd6-07ef-4162-8266-3dd13c64b6f5"
				}
			}
		},
		{
			"fullUrl": "http://example.org/Observation/1bc1d35d-d8c7-41de-a6e9-115ddcc25185",
			"resource": {
				"resourceType": "Observation",
				"id": "1bc1d35d-d8c7-41de-a6e9-115ddcc25185",
				"meta": {
					"profile": [
						"http://hl7.org/fhir/us/ph-library/StructureDefinition/us-ph-pregnancy-status-observation"
					]
				},
				"text": {
					"status": "generated",
					"div": "<div xmlns=\"http://www.w3.org/1999/xhtml\">This is a simple narrative with only plain text</div>"
				},
				"status": "final",
				"category": [
					{
						"coding": [
							{
								"system": "http://terminology.hl7.org/CodeSystem/observation-category",
								"code": "social-history",
								"display": "Social History"
							}
						]
					}
				],
				"code": {
					"coding": [
						{
							"system": "http://loinc.org",
							"code": "82810-3",
							"display": "Pregnancy status"
						}
					],
					"text": "Pregnancy status"
				},
				"subject": {
					"reference": "Patient/b63596b1-3961-4d9c-a682-48629bf25005"
				},
				"effectiveDateTime": "2024-09-03T03:55:30.325466+00:00",
				"performer": [
					{
						"reference": "Practitioner/857c7e1a-546c-4517-962e-ec3d7a3a746d",
						"display": "Practitioner"
					}
				],
				"valueCodeableConcept": {
					"coding": [
						{
							"system": "http://snomed.info/sct",
							"code": "60001007",
							"display": "Not pregnant (finding)"
						}
					],
					"text": "Not pregnant (finding)"
				}
			}
		}
	]
}