{
	"resourceType": "Bundle",
	"id": "836b4ef1-e3ca-4df8-89a0-e7920791ad9b",
	"meta": {
		"profile": [
			"http://hl7.org/fhir/us/ph-library/StructureDefinition/us-ph-content-bundle"
		]
	},
	"type": "collection",
	"entry": [
		{
			"fullUrl": "http://example.org/Patient/241e727b-9aff-45a2-b49f-c569b5cd6bb0",
			"resource": {
				"resourceType": "Patient",
				"id": "241e727b-9aff-45a2-b49f-c569b5cd6bb0",
				"meta": {
					"profile": [
						"http://hl7.org/fhir/us/ph-library/StructureDefinition/us-ph-patient"
					]
				},
				"text": {
					"status": "generated",
					"div": "<div xmlns=\"http://www.w3.org/1999/xhtml\">This is a simple narrative with only plain text</div>"
				},
				"extension": [
					{
						"extension": [
							{
								"url": "ombCategory",
								"valueCoding": {
									"system": "urn:oid:2.16.840.1.113883.6.238",
									"code": "2054-5",
									"display": "Black or African American"
								}
							},
							{
								"url": "text",
								"valueString": "Black or African American"
							}
						],
						"url": "http://hl7.org/fhir/us/core/StructureDefinition/us-core-race"
					},
					{
						"extension": [
							{
								"url": "ombCategory",
								"valueCoding": {
									"system": "urn:oid:2.16.840.1.113883.6.238",
									"code": "2186-5",
									"display": "Not Hispanic or Latino"
								}
							},
							{
								"url": "text",
								"valueString": "Not Hispanic or Latino"
							}
						],
						"url": "http://hl7.org/fhir/us/core/StructureDefinition/us-core-ethnicity"
					}
				],
				"identifier": [
					{
						"use": "usual",
						"type": {
							"coding": [
								{
									"system": "http://terminology.hl7.org/CodeSystem/v2-0203",
									"code": "MR",
									"display": "Medical Record Number"
								}
							],
							"text": "Medical Record Number"
						},
						"system": "http://hospital.smarthealthit.org",
						"value": "686308"
					}
				],
				"name": [
					{
						"use": "official",
						"family": "Sexton",
						"given": [
							"Richard",
							"H"
						]
					}
				],
				"telecom": [
					{
						"system": "phone",
						"value": "517-425-1399",
						"use": "home"
					}
				],
				"gender": "male",
				"birthDate": "1949-03-24",
				"deceasedBoolean": false,
				"address": [
					{
						"use": "home",
						"line": [
							"479 Young Lock Suite 371"
						],
						"city": "Edwardshire",
						"state": "TN",
						"country": "US"
					}
				],
				"communication": [
					{
						"language": {
							"coding": [
								{
									"system": "urn:ietf:bcp:47",
									"code": "en",
									"display": "English"
								}
							]
						}
					}
				]
			}
		},
		{
			"fullUrl": "http://example.org/Observation/fb2fa62d-69d4-4740-8552-98153e1e586e",
			"resource": {
				"resourceType": "Observation",
				"id": "fb2fa62d-69d4-4740-8552-98153e1e586e",
				"meta": {
					"profile": [
						"http://hl7.org/fhir/us/core/StructureDefinition/us-core-simple-observation"
					]
				},
				"text": {
					"status": "generated",
					"div": "<div xmlns=\"http://www.w3.org/1999/xhtml\">This is a simple narrative with only plain text</div>"
				},
				"status": "final",
				"category": [
					{
						"coding": [
							{
								"system": "http://terminology.hl7.org/CodeSystem/observation-category",
								"code": "social-history",
								"display": "Social History"
							}
						]
					}
				],
				"code": {
					"coding": [
						{
							"system": "http://loinc.org",
							"code": "69721-9",
							"display": "Do you ever drink alcohol - including beer or wine [Reported.PHQ]"
						}
					],
					"text": "Do you ever drink alcohol - including beer or wine [Reported.PHQ]"
				},
				"subject": {
					"reference": "Patient/241e727b-9aff-45a2-b49f-c569b5cd6bb0"
				},
				"effectiveDateTime": "2024-09-03T03:55:16.380733+00:00",
				"performer": [
					{
						"reference": "Practitioner/f51ff39e-b0e3-4f4f-8a2c-0910f04149ea",
						"display": "Practitioner"
					}
				],
				"valueCodeableConcept": {
					"coding": [
						{
							"system": "http://snomed.info/sct",
							"code": "228319007",
							"display": "Drinks alcohol daily (finding)"
						}
					],
					"text": "Drinks alcohol daily (finding)"
				}
			}
		},
		{
			"fullUrl": "http://example.org/Practitioner/f51ff39e-b0e3-4f4f-8a2c-0910f04149ea",
			"resource": {
				"resourceType": "Practitioner",
				"id": "f51ff39e-b0e3-4f4f-8a2c-0910f04149ea",
				"meta": {
					"profile": [
						"http://hl7.org/fhir/us/core/StructureDefinition/us-core-practitioner"
					]
				},
				"text": {
					"status": "generated",
					"div": "<div xmlns=\"http://www.w3.org/1999/xhtml\">This is a simple narrative with only plain text</div>"
				},
				"identifier": [
					{
						"system": "http://hl7.org/fhir/sid/us-npi",
						"value": "5823922609"
					}
				],
				"name": [
					{
						"use": "official",
						"family": "Garcia",
						"given": [
							"Charles"
						]
					}
				]
			}
		},
		{
			"fullUrl": "http://example.org/Organization/29e97b6f-a73a-4b4b-881a-ffc33b2f8d95",
			"resource": {
				"resourceType": "Organization",
				"id": "29e97b6f-a73a-4b4b-881a-ffc33b2f8d95",
				"meta": {
					"profile": [
						"http://hl7.org/fhir/us/ph-library/StructureDefinition/us-ph-organization"
					]
				},
				"text": {
					"status": "generated",
					"div": "<div xmlns=\"http://www.w3.org/1999/xhtml\">This is a simple narrative with only plain text</div>"
				},
				"active": true,
				"name": "Hospital H",
				"telecom": [
					{
						"system": "phone",
						"value": "(+1) 734-677-7777"
					}
				],
				"address": [
					{
						"use": "work",
						"line": [
							"65798 Diaz Fields"
						],
						"state": "TN",
						"country": "US"
					}
				]
			}
		},
		{
			"fullUrl": "http://example.org/Encounter/c2e7e1a6-4df2-4150-af5c-f0ce28164a5e",
			"resource": {
				"resourceType": "Encounter",
				"id": "c2e7e1a6-4df2-4150-af5c-f0ce28164a5e",
				"meta": {
					"profile": [
						"http://hl7.org/fhir/us/ph-library/StructureDefinition/us-ph-encounter"
					]
				},
				"text": {
					"status": "generated",
					"div": "<div xmlns=\"http://www.w3.org/1999/xhtml\">This is a simple narrative with only plain text</div>"
				},
				"status": "finished",
				"class": {
					"system": "http://terminology.hl7.org/CodeSystem/v3-ActCode",
					"code": "AMB",
					"display": "ambulatory"
				},
				"type": [
					{
						"coding": [
							{
								"system": "http://www.ama-assn.org/go/cpt",
								"code": "99213",
								"display": "Office or other outpatient visit for the evaluation and management of an established patient, which requires a medically appropriate history and/or examination and low level of medical decision making. When using time for code selection, 20-29 minutes of total time is spent on the date of the encounter."
							}
						],
						"text": "Office Visit"
					}
				],
				"subject": {
					"reference": "Patient/241e727b-9aff-45a2-b49f-c569b5cd6bb0"
				},
				"participant": [
					{
						"individual": {
							"reference": "Practitioner/f51ff39e-b0e3-4f4f-8a2c-0910f04149ea"
						}
					}
				],
				"period": {
					"start": "2024-01-25T00:22:25-04:00",
					"end": "2024-05-31T08:24:15-04:00"
				},
				"location": [
					{
						"location": {
							"reference": "Location/d1636409-8269-4758-9130-20daf48d02f6",
							"display": "Clinic Bldg A, Salem Medical Center, 4444 Healthcare Drive, Ann Arbor MI, 99999"
						}
					}
				],
				"serviceProvider": {
					"reference": "Organization/29e97b6f-a73a-4b4b-881a-ffc33b2f8d95"
				}
			}
		},
		{
			"fullUrl": "http://example.org/Location/d1636409-8269-4758-9130-20daf48d02f1",
			"resource": {
				"resourceType": "Location",
				"id": "d1636409-8269-4758-9130-20daf48d02f1",
				"meta": {
					"profile": [
						"http://hl7.org/fhir/us/ph-library/StructureDefinition/us-ph-location"
					]
				},
				"text": {
					"status": "generated",
					"div": "<div xmlns=\"http://www.w3.org/1999/xhtml\">This is a simple narrative with only plain text</div>"
				},
				"identifier": [
					{
						"system": "http://hl7.org/fhir/sid/us-npi",
						"value": "1063494177"
					}
				],
				"status": "active",
				"name": "Clinic Bldg A, Salem Medical Center",
				"type": [
					{
						"coding": [
							{
								"system": "http://terminology.hl7.org/CodeSystem/v3-RoleCode",
								"code": "HOSP",
								"display": "Hospital"
							}
						]
					}
				],
				"telecom": [
					{
						"system": "phone",
						"value": "(+1) (555)555-3001"
					},
					{
						"system": "fax",
						"value": "(+1) (555)555-3002"
					},
					{
						"system": "email",
						"value": "mail@smc.org"
					}
				],
				"address": {
					"line": [
						"Clinic Bldg A",
						"4444 Healthcare Drive"
					],
					"city": "Ann Arbor",
					"state": "MI",
					"postalCode": "99999"
				},
				"managingOrganization": {
					"reference": "Organization/29e97b6f-a73a-4b4b-881a-ffc33b2f8d95"
				}
			}
		},
		{
			"fullUrl": "http://example.org/Condition/fa374dc2-f5b9-4ea0-9359-dbccbb99fd33",
			"resource": {
				"resourceType": "Condition",
				"id": "fa374dc2-f5b9-4ea0-9359-dbccbb99fd33",
				"meta": {
					"profile": [
						"http://hl7.org/fhir/us/ph-library/StructureDefinition/us-ph-condition-encounter-diagnosis"
					]
				},
				"text": {
					"status": "generated",
					"div": "<div xmlns=\"http://www.w3.org/1999/xhtml\">This is a simple narrative with only plain text</div>"
				},
				"clinicalStatus": {
					"coding": [
						{
							"system": "http://terminology.hl7.org/CodeSystem/condition-clinical",
							"code": "active",
							"display": "Active"
						}
					]
				},
				"verificationStatus": {
					"coding": [
						{
							"system": "http://terminology.hl7.org/CodeSystem/condition-ver-status",
							"code": "confirmed",
							"display": "Confirmed"
						}
					]
				},
				"category": [
					{
						"coding": [
							{
								"system": "http://terminology.hl7.org/CodeSystem/condition-category",
								"code": "encounter-diagnosis",
								"display": "Encounter Diagnosis"
							}
						]
					}
				],
				"code": {
					"coding": [
						{
							"system": "http://hl7.org/fhir/sid/icd-10-cm",
							"code": "A54.00",
							"display": "Gonococcal infection of lower genitourinary tract, unspecified"
						}
					],
					"text": "Gonococcal infection of lower genitourinary tract, unspecified"
				},
				"subject": {
					"reference": "Patient/241e727b-9aff-45a2-b49f-c569b5cd6bb0"
				},
				"encounter": {
					"reference": "Encounter/c2e7e1a6-4df2-4150-af5c-f0ce28164a5e"
				},
				"recordedDate": "2024-01-05T05:13:32-04:00"
			}
		},
		{
			"fullUrl": "http://example.org/MedicationRequest/f28bc774-dacb-4149-b110-bbd1b73fea04",
			"resource": {
				"resourceType": "MedicationRequest",
				"id": "f28bc774-dacb-4149-b110-bbd1b73fea04",
				"meta": {
					"profile": [
						"http://hl7.org/fhir/us/core/StructureDefinition/us-core-medicationrequest"
					]
				},
				"text": {
					"status": "generated",
					"div": "<div xmlns=\"http://www.w3.org/1999/xhtml\">This is a simple narrative with only plain text</div>"
				},
				"status": "completed",
				"intent": "order",
				"medicationCodeableConcept": {
					"coding": [
						{
							"system": "http://www.nlm.nih.gov/research/umls/rxnorm",
							"code": "309090",
							"display": "ceftriaxone 100 MG/ML Injectable Solution"
						}
					],
					"text": "ceftriaxone 100 MG/ML Injectable Solution"
				},
				"subject": {
					"reference": "Patient/241e727b-9aff-45a2-b49f-c569b5cd6bb0"
				},
				"encounter": {
					"reference": "Encounter/c2e7e1a6-4df2-4150-af5c-f0ce28164a5e"
				},
				"authoredOn": "2024-05-18T07:45:33-04:00",
				"requester": {
					"reference": "Practitioner/f51ff39e-b0e3-4f4f-8a2c-0910f04149ea"
				},
				"reasonCode": [
					{
						"coding": [
							{
								"system": "http://hl7.org/fhir/sid/icd-10-cm",
								"code": "A54.00",
								"display": "Gonococcal infection of lower genitourinary tract, unspecified"
							}
						],
						"text": "Gonococcal infection of lower genitourinary tract, unspecified"
					},
					{
						"coding": [
							{
								"system": "http://snomed.info/sct",
								"code": "788961008",
								"display": "Infection of the penile urethra caused by Neisseria gonorrhoeae (disorder)"
							}
						],
						"text": "Infection of the penile urethra caused by Neisseria gonorrhoeae (disorder)"
					}
				],
				"reasonReference": [
					{
						"reference": "Condition/fa374dc2-f5b9-4ea0-9359-dbccbb99fd33"
					}
				],
				"dosageInstruction": [
					{
						"text": "IM 500mg/single dose"
					}
				]
			}
		},
		{
			"fullUrl": "http://example.org/Specimen/4c85c36a-418e-4805-b534-649fc220b159",
			"resource": {
				"resourceType": "Specimen",
				"id": "4c85c36a-418e-4805-b534-649fc220b159",
				"meta": {
					"profile": [
						"http://hl7.org/fhir/us/ph-library/StructureDefinition/us-ph-specimen"
					]
				},
				"text": {
					"status": "generated",
					"div": "<div xmlns=\"http://www.w3.org/1999/xhtml\">This is a simple narrative with only plain text</div>"
				},
				"type": {
					"coding": [
						{
							"system": "http://terminology.hl7.org/CodeSystem/v2-0487",
							"code": "SMN",
							"display": "Seminal fluid"
						}
					]
				},
				"subject": {
					"reference": "Patient/241e727b-9aff-45a2-b49f-c569b5cd6bb0"
				}
			}
		},
		{
			"fullUrl": "http://example.org/Observation/de44d3f5-0e38-4376-a92b-6a2554a7ca55",
			"resource": {
				"resourceType": "Observation",
				"id": "de44d3f5-0e38-4376-a92b-6a2554a7ca55",
				"meta": {
					"profile": [
						"http://hl7.org/fhir/us/ph-library/StructureDefinition/us-ph-lab-result-observation"
					]
				},
				"text": {
					"status": "generated",
					"div": "<div xmlns=\"http://www.w3.org/1999/xhtml\">This is a simple narrative with only plain text</div>"
				},
				"status": "final",
				"category": [
					{
						"coding": [
							{
								"system": "http://terminology.hl7.org/CodeSystem/observation-category",
								"code": "laboratory",
								"display": "Laboratory"
							}
						]
					}
				],
				"code": {
					"coding": [
						{
							"system": "http://loinc.org",
							"code": "47387-6",
							"display": "Neisseria gonorrhoeae DNA [Presence] in Genital specimen by NAA with probe detection"
						}
					]
				},
				"subject": {
					"reference": "Patient/241e727b-9aff-45a2-b49f-c569b5cd6bb0"
				},
				"encounter": {
					"reference": "Encounter/c2e7e1a6-4df2-4150-af5c-f0ce28164a5e"
				},
				"effectiveDateTime": "2024-07-07",
				"performer": [
					{
						"reference": "Practitioner/f51ff39e-b0e3-4f4f-8a2c-0910f04149ea",
						"display": "Practitioner"
					}
				],
				"valueCodeableConcept": {
					"coding": [
						{
							"system": "http://snomed.info/sct",
							"code": "260373001",
							"display": "Detected"
						}
					]
				},
				"interpretation": [
					{
						"coding": [
							{
								"system": "http://terminology.hl7.org/CodeSystem/v3-ObservationInterpretation",
								"code": "POS",
								"display": "Positive"
							}
						]
					}
				],
				"specimen": {
					"reference": "Specimen/4c85c36a-418e-4805-b534-649fc220b159"
				}
			}
		},
		{
			"fullUrl": "http://example.org/Observation/13b4e231-447d-4a6e-bd49-3bf336ac2cf7",
			"resource": {
				"resourceType": "Observation",
				"id": "13b4e231-447d-4a6e-bd49-3bf336ac2cf7",
				"meta": {
					"profile": [
						"http://hl7.org/fhir/us/ph-library/StructureDefinition/us-ph-pregnancy-status-observation"
					]
				},
				"text": {
					"status": "generated",
					"div": "<div xmlns=\"http://www.w3.org/1999/xhtml\">This is a simple narrative with only plain text</div>"
				},
				"status": "final",
				"category": [
					{
						"coding": [
							{
								"system": "http://terminology.hl7.org/CodeSystem/observation-category",
								"code": "social-history",
								"display": "Social History"
							}
						]
					}
				],
				"code": {
					"coding": [
						{
							"system": "http://loinc.org",
							"code": "82810-3",
							"display": "Pregnancy status"
						}
					],
					"text": "Pregnancy status"
				},
				"subject": {
					"reference": "Patient/241e727b-9aff-45a2-b49f-c569b5cd6bb0"
				},
				"effectiveDateTime": "2024-09-03T03:55:16.382181+00:00",
				"performer": [
					{
						"reference": "Practitioner/f51ff39e-b0e3-4f4f-8a2c-0910f04149ea",
						"display": "Practitioner"
					}
				],
				"valueCodeableConcept": {
					"coding": [
						{
							"system": "http://snomed.info/sct",
							"code": "60001007",
							"display": "Not pregnant (finding)"
						}
					],
					"text": "Not pregnant (finding)"
				}
			}
		}
	]
}