{
	"resourceType": "Bundle",
	"id": "03c2edc5-d1df-4641-af3e-aaab705059db",
	"meta": {
		"profile": [
			"http://hl7.org/fhir/us/ph-library/StructureDefinition/us-ph-content-bundle"
		]
	},
	"type": "collection",
	"entry": [
		{
			"fullUrl": "http://example.org/Patient/a8c11ae2-5060-43b5-89a4-f7bb532a54f4",
			"resource": {
				"resourceType": "Patient",
				"id": "a8c11ae2-5060-43b5-89a4-f7bb532a54f4",
				"meta": {
					"profile": [
						"http://hl7.org/fhir/us/ph-library/StructureDefinition/us-ph-patient"
					]
				},
				"text": {
					"status": "generated",
					"div": "<div xmlns=\"http://www.w3.org/1999/xhtml\">This is a simple narrative with only plain text</div>"
				},
				"extension": [
					{
						"extension": [
							{
								"url": "ombCategory",
								"valueCoding": {
									"system": "urn:oid:2.16.840.1.113883.6.238",
									"code": "2106-3",
									"display": "White"
								}
							},
							{
								"url": "text",
								"valueString": "White"
							}
						],
						"url": "http://hl7.org/fhir/us/core/StructureDefinition/us-core-race"
					},
					{
						"extension": [
							{
								"url": "ombCategory",
								"valueCoding": {
									"system": "urn:oid:2.16.840.1.113883.6.238",
									"code": "2135-2",
									"display": "Hispanic or Latino"
								}
							},
							{
								"url": "text",
								"valueString": "Hispanic or Latino"
							}
						],
						"url": "http://hl7.org/fhir/us/core/StructureDefinition/us-core-ethnicity"
					}
				],
				"identifier": [
					{
						"use": "usual",
						"type": {
							"coding": [
								{
									"system": "http://terminology.hl7.org/CodeSystem/v2-0203",
									"code": "MR",
									"display": "Medical Record Number"
								}
							],
							"text": "Medical Record Number"
						},
						"system": "http://hospital.smarthealthit.org",
						"value": "966139"
					}
				],
				"name": [
					{
						"use": "official",
						"family": "Smith",
						"given": [
							"Charles",
							"C"
						]
					}
				],
				"telecom": [
					{
						"system": "phone",
						"value": "517-425-1399",
						"use": "home"
					}
				],
				"gender": "male",
				"birthDate": "1982-06-15",
				"deceasedBoolean": false,
				"address": [
					{
						"use": "home",
						"line": [
							"0759 Sharp Corner"
						],
						"city": "Pamelaland",
						"state": "CT",
						"country": "US"
					}
				],
				"communication": [
					{
						"language": {
							"coding": [
								{
									"system": "urn:ietf:bcp:47",
									"code": "en",
									"display": "English"
								}
							]
						}
					}
				]
			}
		},
		{
			"fullUrl": "http://example.org/Observation/a3cb88a7-efe2-4212-9833-344b5f24b61f",
			"resource": {
				"resourceType": "Observation",
				"id": "a3cb88a7-efe2-4212-9833-344b5f24b61f",
				"meta": {
					"profile": [
						"http://hl7.org/fhir/us/core/StructureDefinition/us-core-smokingstatus"
					]
				},
				"text": {
					"status": "generated",
					"div": "<div xmlns=\"http://www.w3.org/1999/xhtml\">This is a simple narrative with only plain text</div>"
				},
				"status": "final",
				"category": [
					{
						"coding": [
							{
								"system": "http://terminology.hl7.org/CodeSystem/observation-category",
								"code": "social-history",
								"display": "Social History"
							}
						]
					}
				],
				"code": {
					"coding": [
						{
							"system": "http://loinc.org",
							"code": "72166-2",
							"display": "Tobacco smoking status"
						}
					],
					"text": "Tobacco smoking status"
				},
				"subject": {
					"reference": "Patient/a8c11ae2-5060-43b5-89a4-f7bb532a54f4"
				},
				"effectiveDateTime": "2024-09-03T03:55:10.439462+00:00",
				"performer": [
					{
						"reference": "Practitioner/a2dafb0f-1f76-42ad-8f91-1ac3af2d98d9",
						"display": "Practitioner"
					}
				],
				"valueCodeableConcept": {
					"coding": [
						{
							"system": "http://snomed.info/sct",
							"code": "8392000",
							"display": "Non-smoker (finding)"
						}
					],
					"text": "Non-smoker (finding)"
				}
			}
		},
		{
			"fullUrl": "http://example.org/Practitioner/a2dafb0f-1f76-42ad-8f91-1ac3af2d98d9",
			"resource": {
				"resourceType": "Practitioner",
				"id": "a2dafb0f-1f76-42ad-8f91-1ac3af2d98d9",
				"meta": {
					"profile": [
						"http://hl7.org/fhir/us/core/StructureDefinition/us-core-practitioner"
					]
				},
				"text": {
					"status": "generated",
					"div": "<div xmlns=\"http://www.w3.org/1999/xhtml\">This is a simple narrative with only plain text</div>"
				},
				"identifier": [
					{
						"system": "http://hl7.org/fhir/sid/us-npi",
						"value": "9066122489"
					}
				],
				"name": [
					{
						"use": "official",
						"family": "Little",
						"given": [
							"Anna"
						]
					}
				]
			}
		},
		{
			"fullUrl": "http://example.org/Organization/ac0a82c9-65fd-44d1-8719-8ad61b7fe254",
			"resource": {
				"resourceType": "Organization",
				"id": "ac0a82c9-65fd-44d1-8719-8ad61b7fe254",
				"meta": {
					"profile": [
						"http://hl7.org/fhir/us/ph-library/StructureDefinition/us-ph-organization"
					]
				},
				"text": {
					"status": "generated",
					"div": "<div xmlns=\"http://www.w3.org/1999/xhtml\">This is a simple narrative with only plain text</div>"
				},
				"active": true,
				"name": "Hospital C",
				"telecom": [
					{
						"system": "phone",
						"value": "(+1) 734-677-7777"
					}
				],
				"address": [
					{
						"use": "work",
						"line": [
							"648 Jacqueline Parkways Apt. 438"
						],
						"state": "CT",
						"country": "US"
					}
				]
			}
		},
		{
			"fullUrl": "http://example.org/Encounter/0cf26fc2-f140-4eed-921e-8e28385fd4ea",
			"resource": {
				"resourceType": "Encounter",
				"id": "0cf26fc2-f140-4eed-921e-8e28385fd4ea",
				"meta": {
					"profile": [
						"http://hl7.org/fhir/us/ph-library/StructureDefinition/us-ph-encounter"
					]
				},
				"text": {
					"status": "generated",
					"div": "<div xmlns=\"http://www.w3.org/1999/xhtml\">This is a simple narrative with only plain text</div>"
				},
				"status": "finished",
				"class": {
					"system": "http://terminology.hl7.org/CodeSystem/v3-ActCode",
					"code": "AMB",
					"display": "ambulatory"
				},
				"type": [
					{
						"coding": [
							{
								"system": "http://www.ama-assn.org/go/cpt",
								"code": "99213",
								"display": "Office or other outpatient visit for the evaluation and management of an established patient, which requires a medically appropriate history and/or examination and low level of medical decision making. When using time for code selection, 20-29 minutes of total time is spent on the date of the encounter."
							}
						],
						"text": "Office Visit"
					}
				],
				"subject": {
					"reference": "Patient/a8c11ae2-5060-43b5-89a4-f7bb532a54f4"
				},
				"participant": [
					{
						"individual": {
							"reference": "Practitioner/a2dafb0f-1f76-42ad-8f91-1ac3af2d98d9"
						}
					}
				],
				"period": {
					"start": "2024-02-18T03:51:29-04:00",
					"end": "2024-04-19T03:21:52-04:00"
				},
				"location": [
					{
						"location": {
							"reference": "Location/d1636409-8269-4758-9130-20daf48d02f6",
							"display": "Clinic Bldg A, Salem Medical Center, 4444 Healthcare Drive, Ann Arbor MI, 99999"
						}
					}
				],
				"serviceProvider": {
					"reference": "Organization/ac0a82c9-65fd-44d1-8719-8ad61b7fe254"
				}
			}
		},
		{
			"fullUrl": "http://example.org/Location/d1636409-8269-4758-9130-20daf48d02f1",
			"resource": {
				"resourceType": "Location",
				"id": "d1636409-8269-4758-9130-20daf48d02f1",
				"meta": {
					"profile": [
						"http://hl7.org/fhir/us/ph-library/StructureDefinition/us-ph-location"
					]
				},
				"text": {
					"status": "generated",
					"div": "<div xmlns=\"http://www.w3.org/1999/xhtml\">This is a simple narrative with only plain text</div>"
				},
				"identifier": [
					{
						"system": "http://hl7.org/fhir/sid/us-npi",
						"value": "1063494177"
					}
				],
				"status": "active",
				"name": "Clinic Bldg A, Salem Medical Center",
				"type": [
					{
						"coding": [
							{
								"system": "http://terminology.hl7.org/CodeSystem/v3-RoleCode",
								"code": "HOSP",
								"display": "Hospital"
							}
						]
					}
				],
				"telecom": [
					{
						"system": "phone",
						"value": "(+1) (555)555-3001"
					},
					{
						"system": "fax",
						"value": "(+1) (555)555-3002"
					},
					{
						"system": "email",
						"value": "mail@smc.org"
					}
				],
				"address": {
					"line": [
						"Clinic Bldg A",
						"4444 Healthcare Drive"
					],
					"city": "Ann Arbor",
					"state": "MI",
					"postalCode": "99999"
				},
				"managingOrganization": {
					"reference": "Organization/ac0a82c9-65fd-44d1-8719-8ad61b7fe254"
				}
			}
		},
		{
			"fullUrl": "http://example.org/Condition/31b91c5a-5625-4b93-88f8-1a3e51be560a",
			"resource": {
				"resourceType": "Condition",
				"id": "31b91c5a-5625-4b93-88f8-1a3e51be560a",
				"meta": {
					"profile": [
						"http://hl7.org/fhir/us/ph-library/StructureDefinition/us-ph-condition-encounter-diagnosis"
					]
				},
				"text": {
					"status": "generated",
					"div": "<div xmlns=\"http://www.w3.org/1999/xhtml\">This is a simple narrative with only plain text</div>"
				},
				"clinicalStatus": {
					"coding": [
						{
							"system": "http://terminology.hl7.org/CodeSystem/condition-clinical",
							"code": "active",
							"display": "Active"
						}
					]
				},
				"verificationStatus": {
					"coding": [
						{
							"system": "http://terminology.hl7.org/CodeSystem/condition-ver-status",
							"code": "confirmed",
							"display": "Confirmed"
						}
					]
				},
				"category": [
					{
						"coding": [
							{
								"system": "http://terminology.hl7.org/CodeSystem/condition-category",
								"code": "encounter-diagnosis",
								"display": "Encounter Diagnosis"
							}
						]
					}
				],
				"code": {
					"coding": [
						{
							"system": "http://hl7.org/fhir/sid/icd-10-cm",
							"code": "A54.00",
							"display": "Gonococcal infection of lower genitourinary tract, unspecified"
						}
					],
					"text": "Gonococcal infection of lower genitourinary tract, unspecified"
				},
				"subject": {
					"reference": "Patient/a8c11ae2-5060-43b5-89a4-f7bb532a54f4"
				},
				"encounter": {
					"reference": "Encounter/0cf26fc2-f140-4eed-921e-8e28385fd4ea"
				},
				"recordedDate": "2024-06-27T10:41:18-04:00"
			}
		},
		{
			"fullUrl": "http://example.org/MedicationRequest/595a1f14-b006-40b5-9b87-803425e971cd",
			"resource": {
				"resourceType": "MedicationRequest",
				"id": "595a1f14-b006-40b5-9b87-803425e971cd",
				"meta": {
					"profile": [
						"http://hl7.org/fhir/us/core/StructureDefinition/us-core-medicationrequest"
					]
				},
				"text": {
					"status": "generated",
					"div": "<div xmlns=\"http://www.w3.org/1999/xhtml\">This is a simple narrative with only plain text</div>"
				},
				"status": "completed",
				"intent": "order",
				"medicationCodeableConcept": {
					"coding": [
						{
							"system": "http://www.nlm.nih.gov/research/umls/rxnorm",
							"code": "309090",
							"display": "ceftriaxone 100 MG/ML Injectable Solution"
						}
					],
					"text": "ceftriaxone 100 MG/ML Injectable Solution"
				},
				"subject": {
					"reference": "Patient/a8c11ae2-5060-43b5-89a4-f7bb532a54f4"
				},
				"encounter": {
					"reference": "Encounter/0cf26fc2-f140-4eed-921e-8e28385fd4ea"
				},
				"authoredOn": "2024-05-02T21:14:48-04:00",
				"requester": {
					"reference": "Practitioner/a2dafb0f-1f76-42ad-8f91-1ac3af2d98d9"
				},
				"reasonCode": [
					{
						"coding": [
							{
								"system": "http://hl7.org/fhir/sid/icd-10-cm",
								"code": "A54.00",
								"display": "Gonococcal infection of lower genitourinary tract, unspecified"
							}
						],
						"text": "Gonococcal infection of lower genitourinary tract, unspecified"
					},
					{
						"coding": [
							{
								"system": "http://snomed.info/sct",
								"code": "788961008",
								"display": "Infection of the penile urethra caused by Neisseria gonorrhoeae (disorder)"
							}
						],
						"text": "Infection of the penile urethra caused by Neisseria gonorrhoeae (disorder)"
					}
				],
				"reasonReference": [
					{
						"reference": "Condition/31b91c5a-5625-4b93-88f8-1a3e51be560a"
					}
				],
				"dosageInstruction": [
					{
						"text": "IM 500 mg/single dose"
					}
				]
			}
		},
		{
			"fullUrl": "http://example.org/Specimen/a127fd6f-4878-4473-b7c7-9544c414fd22",
			"resource": {
				"resourceType": "Specimen",
				"id": "a127fd6f-4878-4473-b7c7-9544c414fd22",
				"meta": {
					"profile": [
						"http://hl7.org/fhir/us/ph-library/StructureDefinition/us-ph-specimen"
					]
				},
				"text": {
					"status": "generated",
					"div": "<div xmlns=\"http://www.w3.org/1999/xhtml\">This is a simple narrative with only plain text</div>"
				},
				"type": {
					"coding": [
						{
							"system": "http://terminology.hl7.org/CodeSystem/v2-0487",
							"code": "SMN",
							"display": "Seminal fluid"
						}
					]
				},
				"subject": {
					"reference": "Patient/a8c11ae2-5060-43b5-89a4-f7bb532a54f4"
				}
			}
		},
		{
			"fullUrl": "http://example.org/Observation/24022288-9ede-4d85-93fc-4bdedae52708",
			"resource": {
				"resourceType": "Observation",
				"id": "24022288-9ede-4d85-93fc-4bdedae52708",
				"meta": {
					"profile": [
						"http://hl7.org/fhir/us/ph-library/StructureDefinition/us-ph-lab-result-observation"
					]
				},
				"text": {
					"status": "generated",
					"div": "<div xmlns=\"http://www.w3.org/1999/xhtml\">This is a simple narrative with only plain text</div>"
				},
				"status": "final",
				"category": [
					{
						"coding": [
							{
								"system": "http://terminology.hl7.org/CodeSystem/observation-category",
								"code": "laboratory",
								"display": "Laboratory"
							}
						]
					}
				],
				"code": {
					"coding": [
						{
							"system": "http://loinc.org",
							"code": "47387-6",
							"display": "Neisseria gonorrhoeae DNA [Presence] in Genital specimen by NAA with probe detection"
						}
					]
				},
				"subject": {
					"reference": "Patient/a8c11ae2-5060-43b5-89a4-f7bb532a54f4"
				},
				"encounter": {
					"reference": "Encounter/0cf26fc2-f140-4eed-921e-8e28385fd4ea"
				},
				"effectiveDateTime": "2024-07-02",
				"performer": [
					{
						"reference": "Practitioner/a2dafb0f-1f76-42ad-8f91-1ac3af2d98d9",
						"display": "Practitioner"
					}
				],
				"valueCodeableConcept": {
					"coding": [
						{
							"system": "http://snomed.info/sct",
							"code": "260373001",
							"display": "Detected"
						}
					]
				},
				"interpretation": [
					{
						"coding": [
							{
								"system": "http://terminology.hl7.org/CodeSystem/v3-ObservationInterpretation",
								"code": "POS",
								"display": "Positive"
							}
						]
					}
				],
				"specimen": {
					"reference": "Specimen/a127fd6f-4878-4473-b7c7-9544c414fd22"
				}
			}
		},
		{
			"fullUrl": "http://example.org/Observation/86d9dc02-620f-4edb-982a-757607203e1b",
			"resource": {
				"resourceType": "Observation",
				"id": "86d9dc02-620f-4edb-982a-757607203e1b",
				"meta": {
					"profile": [
						"http://hl7.org/fhir/us/ph-library/StructureDefinition/us-ph-pregnancy-status-observation"
					]
				},
				"text": {
					"status": "generated",
					"div": "<div xmlns=\"http://www.w3.org/1999/xhtml\">This is a simple narrative with only plain text</div>"
				},
				"status": "final",
				"category": [
					{
						"coding": [
							{
								"system": "http://terminology.hl7.org/CodeSystem/observation-category",
								"code": "social-history",
								"display": "Social History"
							}
						]
					}
				],
				"code": {
					"coding": [
						{
							"system": "http://loinc.org",
							"code": "82810-3",
							"display": "Pregnancy status"
						}
					],
					"text": "Pregnancy status"
				},
				"subject": {
					"reference": "Patient/a8c11ae2-5060-43b5-89a4-f7bb532a54f4"
				},
				"effectiveDateTime": "2024-09-03T03:55:10.441339+00:00",
				"performer": [
					{
						"reference": "Practitioner/a2dafb0f-1f76-42ad-8f91-1ac3af2d98d9",
						"display": "Practitioner"
					}
				],
				"valueCodeableConcept": {
					"coding": [
						{
							"system": "http://snomed.info/sct",
							"code": "60001007",
							"display": "Not pregnant (finding)"
						}
					],
					"text": "Not pregnant (finding)"
				}
			}
		}
	]
}