{
	"resourceType": "Bundle",
	"id": "8d0452ca-e303-45e6-99c3-6678691db3ee",
	"meta": {
		"profile": [
			"http://hl7.org/fhir/us/ph-library/StructureDefinition/us-ph-content-bundle"
		]
	},
	"type": "collection",
	"entry": [
		{
			"fullUrl": "http://example.org/Patient/7a7b8b05-c2cd-42e2-be24-6f8d541d55b6",
			"resource": {
				"resourceType": "Patient",
				"id": "7a7b8b05-c2cd-42e2-be24-6f8d541d55b6",
				"meta": {
					"profile": [
						"http://hl7.org/fhir/us/ph-library/StructureDefinition/us-ph-patient"
					]
				},
				"text": {
					"status": "generated",
					"div": "<div xmlns=\"http://www.w3.org/1999/xhtml\">This is a simple narrative with only plain text</div>"
				},
				"extension": [
					{
						"extension": [
							{
								"url": "ombCategory",
								"valueCoding": {
									"system": "urn:oid:2.16.840.1.113883.6.238",
									"code": "2054-5",
									"display": "Black or African American"
								}
							},
							{
								"url": "text",
								"valueString": "Black or African American"
							}
						],
						"url": "http://hl7.org/fhir/us/core/StructureDefinition/us-core-race"
					},
					{
						"extension": [
							{
								"url": "ombCategory",
								"valueCoding": {
									"system": "urn:oid:2.16.840.1.113883.6.238",
									"code": "2186-5",
									"display": "Not Hispanic or Latino"
								}
							},
							{
								"url": "text",
								"valueString": "Not Hispanic or Latino"
							}
						],
						"url": "http://hl7.org/fhir/us/core/StructureDefinition/us-core-ethnicity"
					}
				],
				"identifier": [
					{
						"use": "usual",
						"type": {
							"coding": [
								{
									"system": "http://terminology.hl7.org/CodeSystem/v2-0203",
									"code": "MR",
									"display": "Medical Record Number"
								}
							],
							"text": "Medical Record Number"
						},
						"system": "http://hospital.smarthealthit.org",
						"value": "784147"
					}
				],
				"name": [
					{
						"use": "official",
						"family": "Vestappen",
						"given": [
							"Levi",
							"K"
						]
					}
				],
				"telecom": [
					{
						"system": "phone",
						"value": "517-425-1399",
						"use": "home"
					}
				],
				"gender": "male",
				"birthDate": "2001-02-21",
				"deceasedBoolean": false,
				"address": [
					{
						"use": "home",
						"line": [
							"23 Jump Street"
						],
						"city": "Springfield",
						"state": "GA",
						"country": "US"
					}
				],
				"communication": [
					{
						"language": {
							"coding": [
								{
									"system": "urn:ietf:bcp:47",
									"code": "en",
									"display": "English"
								}
							]
						}
					}
				]
			}
		},
		{
			"fullUrl": "http://example.org/Observation/4c986cc5-c23f-4ed7-b8f6-56ef145c8a8a",
			"resource": {
				"resourceType": "Observation",
				"id": "4c986cc5-c23f-4ed7-b8f6-56ef145c8a8a",
				"meta": {
					"profile": [
						"http://hl7.org/fhir/us/core/StructureDefinition/us-core-simple-observation"
					]
				},
				"text": {
					"status": "generated",
					"div": "<div xmlns=\"http://www.w3.org/1999/xhtml\">This is a simple narrative with only plain text</div>"
				},
				"status": "final",
				"category": [
					{
						"coding": [
							{
								"system": "http://terminology.hl7.org/CodeSystem/observation-category",
								"code": "social-history",
								"display": "Social History"
							}
						]
					}
				],
				"code": {
					"coding": [
						{
							"system": "http://loinc.org",
							"code": "85736-7",
							"display": "Number of sexual partners in last 12 months"
						}
					],
					"text": "Number of sexual partners in last 12 months"
				},
				"subject": {
					"reference": "Patient/7a7b8b05-c2cd-42e2-be24-6f8d541d55b6"
				},
				"effectiveDateTime": "2024-09-03T03:55:28.978632+00:00",
				"performer": [
					{
						"reference": "Practitioner/a6c97ef4-7419-4cd6-a45d-fe073b8ae3b8",
						"display": "Practitioner"
					}
				],
				"valueCodeableConcept": {
					"coding": [
						{
							"system": "http://snomed.info/sct",
							"code": "228460004",
							"display": "Multiple current sexual partners (finding)"
						}
					],
					"text": "Multiple current sexual partners (finding)"
				}
			}
		},
		{
			"fullUrl": "http://example.org/Practitioner/a6c97ef4-7419-4cd6-a45d-fe073b8ae3b8",
			"resource": {
				"resourceType": "Practitioner",
				"id": "a6c97ef4-7419-4cd6-a45d-fe073b8ae3b8",
				"meta": {
					"profile": [
						"http://hl7.org/fhir/us/core/StructureDefinition/us-core-practitioner"
					]
				},
				"text": {
					"status": "generated",
					"div": "<div xmlns=\"http://www.w3.org/1999/xhtml\">This is a simple narrative with only plain text</div>"
				},
				"identifier": [
					{
						"system": "http://hl7.org/fhir/sid/us-npi",
						"value": "3812758928"
					}
				],
				"name": [
					{
						"use": "official",
						"family": "Mildew",
						"given": [
							"Mike"
						]
					}
				]
			}
		},
		{
			"fullUrl": "http://example.org/Organization/bcf5cba8-d4ff-4ff2-a888-cf5f9b34be68",
			"resource": {
				"resourceType": "Organization",
				"id": "bcf5cba8-d4ff-4ff2-a888-cf5f9b34be68",
				"meta": {
					"profile": [
						"http://hl7.org/fhir/us/ph-library/StructureDefinition/us-ph-organization"
					]
				},
				"text": {
					"status": "generated",
					"div": "<div xmlns=\"http://www.w3.org/1999/xhtml\">This is a simple narrative with only plain text</div>"
				},
				"active": true,
				"name": "Hospital PQ",
				"telecom": [
					{
						"system": "phone",
						"value": "(+1) 734-677-7777"
					}
				],
				"address": [
					{
						"use": "work",
						"line": [
							"4445 Chipotle Crescent"
						],
						"state": "GA",
						"country": "US"
					}
				]
			}
		},
		{
			"fullUrl": "http://example.org/Encounter/5740c429-ad86-4cab-b8a8-772c88bed983",
			"resource": {
				"resourceType": "Encounter",
				"id": "5740c429-ad86-4cab-b8a8-772c88bed983",
				"meta": {
					"profile": [
						"http://hl7.org/fhir/us/ph-library/StructureDefinition/us-ph-encounter"
					]
				},
				"text": {
					"status": "generated",
					"div": "<div xmlns=\"http://www.w3.org/1999/xhtml\">This is a simple narrative with only plain text</div>"
				},
				"status": "finished",
				"class": {
					"system": "http://terminology.hl7.org/CodeSystem/v3-ActCode",
					"code": "AMB",
					"display": "ambulatory"
				},
				"type": [
					{
						"coding": [
							{
								"system": "http://www.ama-assn.org/go/cpt",
								"code": "99213",
								"display": "Office or other outpatient visit for the evaluation and management of an established patient, which requires a medically appropriate history and/or examination and low level of medical decision making. When using time for code selection, 20-29 minutes of total time is spent on the date of the encounter."
							}
						],
						"text": "Office Visit"
					}
				],
				"subject": {
					"reference": "Patient/7a7b8b05-c2cd-42e2-be24-6f8d541d55b6"
				},
				"participant": [
					{
						"individual": {
							"reference": "Practitioner/a6c97ef4-7419-4cd6-a45d-fe073b8ae3b8"
						}
					}
				],
				"period": {
					"start": "2024-06-25T13:23:43-04:00",
					"end": "2024-06-25T17:23:43-04:00"
				},
				"location": [
					{
						"location": {
							"reference": "Location/d1636409-8269-4758-9130-20daf48d02f6",
							"display": "Clinic Bldg A, Salem Medical Center, 4444 Healthcare Drive, Ann Arbor MI, 99999"
						}
					}
				],
				"serviceProvider": {
					"reference": "Organization/bcf5cba8-d4ff-4ff2-a888-cf5f9b34be68"
				}
			}
		},
		{
			"fullUrl": "http://example.org/Location/d1636409-8269-4758-9130-20daf48d02f1",
			"resource": {
				"resourceType": "Location",
				"id": "d1636409-8269-4758-9130-20daf48d02f1",
				"meta": {
					"profile": [
						"http://hl7.org/fhir/us/ph-library/StructureDefinition/us-ph-location"
					]
				},
				"text": {
					"status": "generated",
					"div": "<div xmlns=\"http://www.w3.org/1999/xhtml\">This is a simple narrative with only plain text</div>"
				},
				"identifier": [
					{
						"system": "http://hl7.org/fhir/sid/us-npi",
						"value": "1063494177"
					}
				],
				"status": "active",
				"name": "Clinic Bldg A, Salem Medical Center",
				"type": [
					{
						"coding": [
							{
								"system": "http://terminology.hl7.org/CodeSystem/v3-RoleCode",
								"code": "HOSP",
								"display": "Hospital"
							}
						]
					}
				],
				"telecom": [
					{
						"system": "phone",
						"value": "(+1) (555)555-3001"
					},
					{
						"system": "fax",
						"value": "(+1) (555)555-3002"
					},
					{
						"system": "email",
						"value": "mail@smc.org"
					}
				],
				"address": {
					"line": [
						"Clinic Bldg A",
						"4444 Healthcare Drive"
					],
					"city": "Ann Arbor",
					"state": "MI",
					"postalCode": "99999"
				},
				"managingOrganization": {
					"reference": "Organization/bcf5cba8-d4ff-4ff2-a888-cf5f9b34be68"
				}
			}
		},
		{
			"fullUrl": "http://example.org/Condition/5d1f2706-965b-4e5f-a751-ce311b2ed756",
			"resource": {
				"resourceType": "Condition",
				"id": "5d1f2706-965b-4e5f-a751-ce311b2ed756",
				"meta": {
					"profile": [
						"http://hl7.org/fhir/us/ph-library/StructureDefinition/us-ph-condition-encounter-diagnosis"
					]
				},
				"text": {
					"status": "generated",
					"div": "<div xmlns=\"http://www.w3.org/1999/xhtml\">This is a simple narrative with only plain text</div>"
				},
				"clinicalStatus": {
					"coding": [
						{
							"system": "http://terminology.hl7.org/CodeSystem/condition-clinical",
							"code": "active",
							"display": "Active"
						}
					]
				},
				"verificationStatus": {
					"coding": [
						{
							"system": "http://terminology.hl7.org/CodeSystem/condition-ver-status",
							"code": "confirmed",
							"display": "Confirmed"
						}
					]
				},
				"category": [
					{
						"coding": [
							{
								"system": "http://terminology.hl7.org/CodeSystem/condition-category",
								"code": "encounter-diagnosis",
								"display": "Encounter Diagnosis"
							}
						]
					}
				],
				"code": {
					"coding": [
						{
							"system": "http://hl7.org/fhir/sid/icd-10-cm",
							"code": "A60.00",
							"display": "Herpesviral infection of urogenital system, unspecified"
						}
					],
					"text": "Herpesviral infection of urogenital system, unspecified"
				},
				"subject": {
					"reference": "Patient/7a7b8b05-c2cd-42e2-be24-6f8d541d55b6"
				},
				"encounter": {
					"reference": "Encounter/5740c429-ad86-4cab-b8a8-772c88bed983"
				},
				"recordedDate": "2024-06-25T15:40:00-04:00"
			}
		},
		{
			"fullUrl": "http://example.org/MedicationRequest/d734e6c0-eccf-4228-bae1-2a8ed031a2e5",
			"resource": {
				"resourceType": "MedicationRequest",
				"id": "d734e6c0-eccf-4228-bae1-2a8ed031a2e5",
				"meta": {
					"profile": [
						"http://hl7.org/fhir/us/core/StructureDefinition/us-core-medicationrequest"
					]
				},
				"text": {
					"status": "generated",
					"div": "<div xmlns=\"http://www.w3.org/1999/xhtml\">This is a simple narrative with only plain text</div>"
				},
				"status": "completed",
				"intent": "order",
				"medicationCodeableConcept": {
					"coding": [
						{
							"system": "http://www.nlm.nih.gov/research/umls/rxnorm",
							"code": "199193",
							"display": "famciclovir 250 MG Oral Tablet"
						}
					],
					"text": "famciclovir 250 MG Oral Tablet"
				},
				"subject": {
					"reference": "Patient/7a7b8b05-c2cd-42e2-be24-6f8d541d55b6"
				},
				"encounter": {
					"reference": "Encounter/5740c429-ad86-4cab-b8a8-772c88bed983"
				},
				"authoredOn": "2024-06-25T19:40:00-04:00",
				"requester": {
					"reference": "Practitioner/a6c97ef4-7419-4cd6-a45d-fe073b8ae3b8"
				},
				"reasonCode": [
					{
						"coding": [
							{
								"system": "http://hl7.org/fhir/sid/icd-10-cm",
								"code": "A60.00",
								"display": "Herpesviral infection of urogenital system, unspecified"
							}
						],
						"text": "Herpesviral infection of urogenital system, unspecified"
					},
					{
						"coding": [
							{
								"system": "http://snomed.info/sct",
								"code": "33839006",
								"display": "Genital herpes simplex (disorder)"
							}
						],
						"text": "Genital herpes simplex (disorder)"
					}
				],
				"reasonReference": [
					{
						"reference": "Condition/5d1f2706-965b-4e5f-a751-ce311b2ed756"
					}
				],
				"dosageInstruction": [
					{
						"text": "Oral 250 MG"
					}
				]
			}
		},
		{
			"fullUrl": "http://example.org/Specimen/688cbc45-de5d-4f82-a224-cf7d92ae5439",
			"resource": {
				"resourceType": "Specimen",
				"id": "688cbc45-de5d-4f82-a224-cf7d92ae5439",
				"meta": {
					"profile": [
						"http://hl7.org/fhir/us/ph-library/StructureDefinition/us-ph-specimen"
					]
				},
				"text": {
					"status": "generated",
					"div": "<div xmlns=\"http://www.w3.org/1999/xhtml\">This is a simple narrative with only plain text</div>"
				},
				"type": {
					"coding": [
						{
							"system": "http://terminology.hl7.org/CodeSystem/v2-0487",
							"code": "BLD",
							"display": "Whole blood"
						}
					]
				},
				"subject": {
					"reference": "Patient/7a7b8b05-c2cd-42e2-be24-6f8d541d55b6"
				}
			}
		},
		{
			"fullUrl": "http://example.org/Observation/de892fc6-9982-4a5b-bb7d-b570309f928e",
			"resource": {
				"resourceType": "Observation",
				"id": "de892fc6-9982-4a5b-bb7d-b570309f928e",
				"meta": {
					"profile": [
						"http://hl7.org/fhir/us/ph-library/StructureDefinition/us-ph-lab-result-observation"
					]
				},
				"text": {
					"status": "generated",
					"div": "<div xmlns=\"http://www.w3.org/1999/xhtml\">This is a simple narrative with only plain text</div>"
				},
				"status": "final",
				"category": [
					{
						"coding": [
							{
								"system": "http://terminology.hl7.org/CodeSystem/observation-category",
								"code": "laboratory",
								"display": "Laboratory"
							}
						]
					}
				],
				"code": {
					"coding": [
						{
							"system": "http://loinc.org",
							"code": "20444-6",
							"display": "Herpes simplex virus 1+2 DNA [Presence] in Specimen by NAA with probe detection"
						}
					]
				},
				"subject": {
					"reference": "Patient/7a7b8b05-c2cd-42e2-be24-6f8d541d55b6"
				},
				"encounter": {
					"reference": "Encounter/5740c429-ad86-4cab-b8a8-772c88bed983"
				},
				"effectiveDateTime": "2024-06-13",
				"performer": [
					{
						"reference": "Practitioner/a6c97ef4-7419-4cd6-a45d-fe073b8ae3b8",
						"display": "Practitioner"
					}
				],
				"valueCodeableConcept": {
					"coding": [
						{
							"system": "http://snomed.info/sct",
							"code": "260373001",
							"display": "Detected"
						}
					]
				},
				"interpretation": [
					{
						"coding": [
							{
								"system": "http://terminology.hl7.org/CodeSystem/v3-ObservationInterpretation",
								"code": "POS",
								"display": "Positive"
							}
						]
					}
				],
				"specimen": {
					"reference": "Specimen/688cbc45-de5d-4f82-a224-cf7d92ae5439"
				}
			}
		},
		{
			"fullUrl": "http://example.org/Observation/3d280a3b-9fbd-40c0-b283-9068295ce32e",
			"resource": {
				"resourceType": "Observation",
				"id": "3d280a3b-9fbd-40c0-b283-9068295ce32e",
				"meta": {
					"profile": [
						"http://hl7.org/fhir/us/ph-library/StructureDefinition/us-ph-pregnancy-status-observation"
					]
				},
				"text": {
					"status": "generated",
					"div": "<div xmlns=\"http://www.w3.org/1999/xhtml\">This is a simple narrative with only plain text</div>"
				},
				"status": "final",
				"category": [
					{
						"coding": [
							{
								"system": "http://terminology.hl7.org/CodeSystem/observation-category",
								"code": "social-history",
								"display": "Social History"
							}
						]
					}
				],
				"code": {
					"coding": [
						{
							"system": "http://loinc.org",
							"code": "82810-3",
							"display": "Pregnancy status"
						}
					],
					"text": "Pregnancy status"
				},
				"subject": {
					"reference": "Patient/7a7b8b05-c2cd-42e2-be24-6f8d541d55b6"
				},
				"effectiveDateTime": "2024-09-03T03:55:28.982567+00:00",
				"performer": [
					{
						"reference": "Practitioner/a6c97ef4-7419-4cd6-a45d-fe073b8ae3b8",
						"display": "Practitioner"
					}
				],
				"valueCodeableConcept": {
					"coding": [
						{
							"system": "http://snomed.info/sct",
							"code": "60001007",
							"display": "Not pregnant (finding)"
						}
					],
					"text": "Not pregnant (finding)"
				}
			}
		}
	]
}