<?xml version="1.0" encoding="UTF-8"?>
<Bundle xmlns="http://hl7.org/fhir">
    <id value="2dcc12cd-e4de-4d22-b1ad-fd4bf693322d" />
    <meta>
        <profile value="http://hl7.org/fhir/us/ph-library/StructureDefinition/us-ph-content-bundle" />
    </meta>
    <type value="collection" />
    <entry>
        <fullUrl value="http://example.org/Patient/f1cc3a2d-71d6-44f7-bfaa-c7e3e2e3d2d1" />
        <resource>
            <Patient>
                <id value="f1cc3a2d-71d6-44f7-bfaa-c7e3e2e3d2d1" />
                <meta>
                    <profile value="http://hl7.org/fhir/us/ph-library/StructureDefinition/us-ph-patient" />
                </meta>
                <text>
                    <status value="generated" />
                    <div xmlns="http://www.w3.org/1999/xhtml">This is a simple narrative with only plain text</div>
                </text>
                <extension url="http://hl7.org/fhir/us/core/StructureDefinition/us-core-race">
                    <extension url="ombCategory">
                        <valueCoding>
                            <system value="urn:oid:2.16.840.1.113883.6.238" />
                            <code value="2106-3" />
                            <display value="White" />
                        </valueCoding>
                    </extension>
                    <extension url="text">
                        <valueString value="White" />
                    </extension>
                </extension>
                <extension url="http://hl7.org/fhir/us/core/StructureDefinition/us-core-ethnicity">
                    <extension url="ombCategory">
                        <valueCoding>
                            <system value="urn:oid:2.16.840.1.113883.6.238" />
                            <code value="2135-2" />
                            <display value="Hispanic or Latino" />
                        </valueCoding>
                    </extension>
                    <extension url="text">
                        <valueString value="Hispanic or Latino" />
                    </extension>
                </extension>
                <identifier>
                    <use value="usual" />
                    <type>
                        <coding>
                            <system value="http://terminology.hl7.org/CodeSystem/v2-0203" />
                            <code value="MR" />
                            <display value="Medical Record Number" />
                        </coding>
                        <text value="Medical Record Number" />
                    </type>
                    <system value="http://hospital.smarthealthit.org" />
                    <value value="214475" />
                </identifier>
                <name>
                    <use value="official" />
                    <family value="Griffin" />
                    <given value="Calvin" />
                    <given value="N" />
                </name>
                <telecom>
                    <system value="phone" />
                    <value value="517-425-1399" />
                    <use value="home" />
                </telecom>
                <gender value="female" />
                <birthDate value="1965-10-25" />
                <deceasedBoolean value="false" />
                <address>
                    <use value="home" />
                    <line value="902 Hernandez Inlet" />
                    <city value="West Jacobmouth" />
                    <state value="GA" />
                    <country value="US" />
                </address>
                <communication>
                    <language>
                        <coding>
                            <system value="urn:ietf:bcp:47" />
                            <code value="en" />
                            <display value="English" />
                        </coding>
                    </language>
                </communication>
            </Patient>
        </resource>
    </entry>
    <entry>
        <fullUrl value="http://example.org/Observation/d3bc3648-fcae-480c-b782-c6b81d700d19" />
        <resource>
            <Observation>
                <id value="d3bc3648-fcae-480c-b782-c6b81d700d19" />
                <meta>
                    <profile value="http://hl7.org/fhir/us/core/StructureDefinition/us-core-smokingstatus" />
                </meta>
                <text>
                    <status value="generated" />
                    <div xmlns="http://www.w3.org/1999/xhtml">This is a simple narrative with only plain text</div>
                </text>
                <status value="final" />
                <category>
                    <coding>
                        <system value="http://terminology.hl7.org/CodeSystem/observation-category" />
                        <code value="social-history" />
                        <display value="Social History" />
                    </coding>
                </category>
                <code>
                    <coding>
                        <system value="http://loinc.org" />
                        <code value="72166-2" />
                        <display value="Tobacco smoking status" />
                    </coding>
                    <text value="Tobacco smoking status" />
                </code>
                <subject>
                    <reference value="Patient/f1cc3a2d-71d6-44f7-bfaa-c7e3e2e3d2d1" />
                </subject>
                <effectiveDateTime value="2024-09-03T03:55:23.075708+00:00" />
                <performer>
                    <reference value="PractitionerRole/283e2d59-76cf-476d-bd3c-19d3dc33fccd" />
                    <display value="PractitionerRole" />
                </performer>
                <valueCodeableConcept>
                    <coding>
                        <system value="http://snomed.info/sct" />
                        <code value="8392000" />
                        <display value="Non-smoker (finding)" />
                    </coding>
                    <text value="Non-smoker (finding)" />
                </valueCodeableConcept>
            </Observation>
        </resource>
    </entry>
    <entry>
        <fullUrl value="http://example.org/Practitioner/d93f2d7a-3913-4d37-a603-b93d4d580492" />
        <resource>
            <Practitioner>
                <id value="d93f2d7a-3913-4d37-a603-b93d4d580492" />
                <meta>
                    <profile value="http://hl7.org/fhir/us/core/StructureDefinition/us-core-practitioner" />
                </meta>
                <text>
                    <status value="generated" />
                    <div xmlns="http://www.w3.org/1999/xhtml">This is a simple narrative with only plain text</div>
                </text>
                <identifier>
                    <system value="http://hl7.org/fhir/sid/us-npi" />
                    <value value="5901232525" />
                </identifier>
                <name>
                    <use value="official" />
                    <family value="Paul" />
                    <given value="Sheila" />
                </name>
            </Practitioner>
        </resource>
    </entry>
    <entry>
        <fullUrl value="http://example.org/Organization/2daec863-4fc6-43b7-8acd-f1972c0f7837" />
        <resource>
            <Organization>
                <id value="2daec863-4fc6-43b7-8acd-f1972c0f7837" />
                <meta>
                    <profile value="http://hl7.org/fhir/us/ph-library/StructureDefinition/us-ph-organization" />
                </meta>
                <text>
                    <status value="generated" />
                    <div xmlns="http://www.w3.org/1999/xhtml">This is a simple narrative with only plain text</div>
                </text>
                <active value="true" />
                <name value="Hospital X" />
                <telecom>
                    <system value="phone" />
                    <value value="(+1) 734-677-7777" />
                </telecom>
                <address>
                    <use value="work" />
                    <line value="999 Maria Streets" />
                    <state value="GA" />
                    <country value="US" />
                </address>
            </Organization>
        </resource>
    </entry>
    <entry>
        <fullUrl value="http://example.org/Encounter/7e4f3983-ff21-42d6-98a7-0a215e1bc2fe" />
        <resource>
            <Encounter>
                <id value="7e4f3983-ff21-42d6-98a7-0a215e1bc2fe" />
                <meta>
                    <profile value="http://hl7.org/fhir/us/ph-library/StructureDefinition/us-ph-encounter" />
                </meta>
                <text>
                    <status value="generated" />
                    <div xmlns="http://www.w3.org/1999/xhtml">This is a simple narrative with only plain text</div>
                </text>
                <status value="finished" />
                <class>
                    <system value="http://terminology.hl7.org/CodeSystem/v3-ActCode" />
                    <code value="AMB" />
                    <display value="ambulatory" />
                </class>
                <type>
                    <coding>
                        <system value="http://www.ama-assn.org/go/cpt" />
                        <code value="99213" />
                        <display
                            value="Office or other outpatient visit for the evaluation and management of an established patient, which requires a medically appropriate history and/or examination and low level of medical decision making. When using time for code selection, 20-29 minutes of total time is spent on the date of the encounter."
                         />
                    </coding>
                    <text value="Office Visit" />
                </type>
                <subject>
                    <reference value="Patient/f1cc3a2d-71d6-44f7-bfaa-c7e3e2e3d2d1" />
                </subject>
                <participant>
                    <individual>
                        <reference value="Practitioner/d93f2d7a-3913-4d37-a603-b93d4d580492" />
                    </individual>
                </participant>
                <period>
                    <start value="2024-02-05T12:30:35-04:00" />
                    <end value="2024-04-16T03:42:16-04:00" />
                </period>
                <location>
                    <location>
                        <reference value="Location/d1636409-8269-4758-9130-20daf48d02f6" />
                        <display value="Clinic Bldg A, Salem Medical Center, 4444 Healthcare Drive, Ann Arbor MI, 99999" />
                    </location>
                </location>
                <serviceProvider>
                    <reference value="Organization/2daec863-4fc6-43b7-8acd-f1972c0f7837" />
                </serviceProvider>
            </Encounter>
        </resource>
    </entry>
    <entry>
        <fullUrl value="http://example.org/Location/d1636409-8269-4758-9130-20daf48d02f1" />
        <resource>
            <Location>
                <id value="d1636409-8269-4758-9130-20daf48d02f1" />
                <meta>
                    <profile value="http://hl7.org/fhir/us/ph-library/StructureDefinition/us-ph-location" />
                </meta>
                <text>
                    <status value="generated" />
                    <div xmlns="http://www.w3.org/1999/xhtml">This is a simple narrative with only plain text</div>
                </text>
                <identifier>
                    <system value="http://hl7.org/fhir/sid/us-npi" />
                    <value value="1063494177" />
                </identifier>
                <status value="active" />
                <name value="Clinic Bldg A, Salem Medical Center" />
                <type>
                    <coding>
                        <system value="http://terminology.hl7.org/CodeSystem/v3-RoleCode" />
                        <code value="HOSP" />
                        <display value="Hospital" />
                    </coding>
                </type>
                <telecom>
                    <system value="phone" />
                    <value value="(+1) (555)555-3001" />
                </telecom>
                <telecom>
                    <system value="fax" />
                    <value value="(+1) (555)555-3002" />
                </telecom>
                <telecom>
                    <system value="email" />
                    <value value="mail@smc.org" />
                </telecom>
                <address>
                    <line value="Clinic Bldg A" />
                    <line value="4444 Healthcare Drive" />
                    <city value="Ann Arbor" />
                    <state value="MI" />
                    <postalCode value="99999" />
                </address>
                <managingOrganization>
                    <reference value="Organization/2daec863-4fc6-43b7-8acd-f1972c0f7837" />
                </managingOrganization>
            </Location>
        </resource>
    </entry>
    <entry>
        <fullUrl value="http://example.org/Condition/c6e688eb-0f45-4a5b-80b5-128ee6ae9709" />
        <resource>
            <Condition>
                <id value="c6e688eb-0f45-4a5b-80b5-128ee6ae9709" />
                <meta>
                    <profile value="http://hl7.org/fhir/us/ph-library/StructureDefinition/us-ph-condition-encounter-diagnosis" />
                </meta>
                <text>
                    <status value="generated" />
                    <div xmlns="http://www.w3.org/1999/xhtml">This is a simple narrative with only plain text</div>
                </text>
                <clinicalStatus>
                    <coding>
                        <system value="http://terminology.hl7.org/CodeSystem/condition-clinical" />
                        <code value="active" />
                        <display value="Active" />
                    </coding>
                </clinicalStatus>
                <verificationStatus>
                    <coding>
                        <system value="http://terminology.hl7.org/CodeSystem/condition-ver-status" />
                        <code value="confirmed" />
                        <display value="Confirmed" />
                    </coding>
                </verificationStatus>
                <category>
                    <coding>
                        <system value="http://terminology.hl7.org/CodeSystem/condition-category" />
                        <code value="encounter-diagnosis" />
                        <display value="Encounter Diagnosis" />
                    </coding>
                </category>
                <code>
                    <coding>
                        <system value="http://hl7.org/fhir/sid/icd-10-cm" />
                        <code value="A54.02" />
                        <display value="Gonococcal vulvovaginitis, unspecified" />
                    </coding>
                    <text value="Gonococcal vulvovaginitis, unspecified" />
                </code>
                <subject>
                    <reference value="Patient/f1cc3a2d-71d6-44f7-bfaa-c7e3e2e3d2d1" />
                </subject>
                <encounter>
                    <reference value="Encounter/7e4f3983-ff21-42d6-98a7-0a215e1bc2fe" />
                </encounter>
                <recordedDate value="2024-04-14T19:20:08-04:00" />
            </Condition>
        </resource>
    </entry>
    <entry>
        <fullUrl value="http://example.org/MedicationRequest/7781f475-8b1b-4dce-8633-e33b2d1e4276" />
        <resource>
            <MedicationRequest>
                <id value="7781f475-8b1b-4dce-8633-e33b2d1e4276" />
                <meta>
                    <profile value="http://hl7.org/fhir/us/core/StructureDefinition/us-core-medicationrequest" />
                </meta>
                <text>
                    <status value="generated" />
                    <div xmlns="http://www.w3.org/1999/xhtml">This is a simple narrative with only plain text</div>
                </text>
                <status value="completed" />
                <intent value="order" />
                <medicationCodeableConcept>
                    <coding>
                        <system value="http://www.nlm.nih.gov/research/umls/rxnorm" />
                        <code value="309090" />
                        <display value="ceftriaxone 100 MG/ML Injectable Solution" />
                    </coding>
                    <text value="ceftriaxone 100 MG/ML Injectable Solution" />
                </medicationCodeableConcept>
                <subject>
                    <reference value="Patient/f1cc3a2d-71d6-44f7-bfaa-c7e3e2e3d2d1" />
                </subject>
                <encounter>
                    <reference value="Encounter/7e4f3983-ff21-42d6-98a7-0a215e1bc2fe" />
                </encounter>
                <authoredOn value="2024-01-25T01:38:37-04:00" />
                <requester>
                    <reference value="Practitioner/d93f2d7a-3913-4d37-a603-b93d4d580492" />
                </requester>
                <reasonCode>
                    <coding>
                        <system value="http://hl7.org/fhir/sid/icd-10-cm" />
                        <code value="A54.02" />
                        <display value="Gonococcal vulvovaginitis, unspecified" />
                    </coding>
                    <text value="Gonococcal vulvovaginitis, unspecified" />
                </reasonCode>
                <reasonCode>
                    <coding>
                        <system value="http://snomed.info/sct" />
                        <code value="237083000" />
                        <display value="Gonococcal cervicitis" />
                    </coding>
                    <text value="Gonococcal cervicitis" />
                </reasonCode>
                <reasonReference>
                    <reference value="Condition/c6e688eb-0f45-4a5b-80b5-128ee6ae9709" />
                </reasonReference>
                <dosageInstruction>
                    <text value="IM 500mg/single dose" />
                </dosageInstruction>
            </MedicationRequest>
        </resource>
    </entry>
    <entry>
        <fullUrl value="http://example.org/Specimen/b64013e9-a1ce-4183-97da-19f2d73c07b1" />
        <resource>
            <Specimen>
                <id value="b64013e9-a1ce-4183-97da-19f2d73c07b1" />
                <meta>
                    <profile value="http://hl7.org/fhir/us/ph-library/StructureDefinition/us-ph-specimen" />
                </meta>
                <text>
                    <status value="generated" />
                    <div xmlns="http://www.w3.org/1999/xhtml">This is a simple narrative with only plain text</div>
                </text>
                <type>
                    <coding>
                        <system value="http://terminology.hl7.org/CodeSystem/v2-0487" />
                        <code value="GENV" />
                        <display value="Genital vaginal" />
                    </coding>
                </type>
                <subject>
                    <reference value="Patient/f1cc3a2d-71d6-44f7-bfaa-c7e3e2e3d2d1" />
                </subject>
            </Specimen>
        </resource>
    </entry>
    <entry>
        <fullUrl value="http://example.org/Observation/bccb4853-eebe-4673-ae5a-d2ceb8ebd7d6" />
        <resource>
            <Observation>
                <id value="bccb4853-eebe-4673-ae5a-d2ceb8ebd7d6" />
                <meta>
                    <profile value="http://hl7.org/fhir/us/ph-library/StructureDefinition/us-ph-lab-result-observation" />
                </meta>
                <text>
                    <status value="generated" />
                    <div xmlns="http://www.w3.org/1999/xhtml">This is a simple narrative with only plain text</div>
                </text>
                <status value="final" />
                <category>
                    <coding>
                        <system value="http://terminology.hl7.org/CodeSystem/observation-category" />
                        <code value="laboratory" />
                        <display value="Laboratory" />
                    </coding>
                </category>
                <code>
                    <coding>
                        <system value="http://loinc.org" />
                        <code value="21414-8" />
                        <display value="Neisseria gonorrhoeae DNA [Presence] in Cervical mucus by NAA with probe detection" />
                    </coding>
                </code>
                <subject>
                    <reference value="Patient/f1cc3a2d-71d6-44f7-bfaa-c7e3e2e3d2d1" />
                </subject>
                <encounter>
                    <reference value="Encounter/7e4f3983-ff21-42d6-98a7-0a215e1bc2fe" />
                </encounter>
                <effectiveDateTime value="2024-07-13" />
                <performer>
                    <reference value="Practitioner/d93f2d7a-3913-4d37-a603-b93d4d580492" />
                    <display value="Practitioner" />
                </performer>
                <valueCodeableConcept>
                    <coding>
                        <system value="http://snomed.info/sct" />
                        <code value="260373001" />
                        <display value="Detected" />
                    </coding>
                </valueCodeableConcept>
                <interpretation>
                    <coding>
                        <system value="http://terminology.hl7.org/CodeSystem/v3-ObservationInterpretation" />
                        <code value="POS" />
                        <display value="Positive" />
                    </coding>
                </interpretation>
                <specimen>
                    <reference value="Specimen/b64013e9-a1ce-4183-97da-19f2d73c07b1" />
                </specimen>
            </Observation>
        </resource>
    </entry>
    <entry>
        <fullUrl value="http://example.org/Observation/d7f31d39-6474-4b08-a0ca-79c9229772cd" />
        <resource>
            <Observation>
                <id value="d7f31d39-6474-4b08-a0ca-79c9229772cd" />
                <meta>
                    <profile value="http://hl7.org/fhir/us/ph-library/StructureDefinition/us-ph-pregnancy-status-observation" />
                </meta>
                <text>
                    <status value="generated" />
                    <div xmlns="http://www.w3.org/1999/xhtml">This is a simple narrative with only plain text</div>
                </text>
                <status value="final" />
                <category>
                    <coding>
                        <system value="http://terminology.hl7.org/CodeSystem/observation-category" />
                        <code value="social-history" />
                        <display value="Social History" />
                    </coding>
                </category>
                <code>
                    <coding>
                        <system value="http://loinc.org" />
                        <code value="82810-3" />
                        <display value="Pregnancy status" />
                    </coding>
                    <text value="Pregnancy status" />
                </code>
                <subject>
                    <reference value="Patient/f1cc3a2d-71d6-44f7-bfaa-c7e3e2e3d2d1" />
                </subject>
                <effectiveDateTime value="2024-09-03T03:55:23.076739+00:00" />
                <performer>
                    <reference value="Practitioner/d93f2d7a-3913-4d37-a603-b93d4d580492" />
                    <display value="Practitioner" />
                </performer>
                <valueCodeableConcept>
                    <coding>
                        <system value="http://snomed.info/sct" />
                        <code value="60001007" />
                        <display value="Not pregnant (finding)" />
                    </coding>
                    <text value="Not pregnant (finding)" />
                </valueCodeableConcept>
            </Observation>
        </resource>
    </entry>
    <entry>
        <fullUrl value="http://example.org/fhir/PractitionerRole/283e2d59-76cf-476d-bd3c-19d3dc33fccd" />
        <resource>
            <PractitionerRole>
                <id value="283e2d59-76cf-476d-bd3c-19d3dc33fccd" />
                <meta>
                    <profile value="http://hl7.org/fhir/us/ph-library/StructureDefinition/us-ph-practitionerrole" />
                </meta>
                <text>
                    <status value="generated" />
                    <div xmlns="http://www.w3.org/1999/xhtml">This is a simple narrative with only plain text</div>
                </text>
                <practitioner>
                    <reference value="Practitioner/d93f2d7a-3913-4d37-a603-b93d4d580492" />
                </practitioner>
                <organization>
                    <reference value="Organization/2daec863-4fc6-43b7-8acd-f1972c0f7837" />
                </organization>
                <code>
                    <coding>
                        <system value="http://nucc.org/provider-taxonomy" />
                        <code value="261QP2300X" />
                        <display value="Primary Care Clinic/Center" />
                    </coding>
                </code>
                <specialty>
                    <coding>
                        <system value="http://snomed.info/sct" />
                        <code value="419772000" />
                        <display value="Family practice" />
                    </coding>
                </specialty>
                <location>
                    <reference value="Location/" />
                    <display value="Location" />
                </location>
                <telecom>
                    <system value="email" />
                    <value value="practitionerRole@example.org" />
                </telecom>
            </PractitionerRole>
        </resource>
    </entry>
</Bundle>
