<?xml version="1.0" encoding="UTF-8"?>
<Bundle xmlns="http://hl7.org/fhir">
    <id value="db39738a-6d8f-4814-9418-73f4acb2bc6e" />
    <meta>
        <profile value="http://hl7.org/fhir/us/ph-library/StructureDefinition/us-ph-content-bundle" />
    </meta>
    <type value="collection" />
    <entry>
        <fullUrl value="http://example.org/Patient/e87ead71-20d2-4654-824b-8fb891147ac5" />
        <resource>
            <Patient>
                <id value="e87ead71-20d2-4654-824b-8fb891147ac5" />
                <meta>
                    <profile value="http://hl7.org/fhir/us/ph-library/StructureDefinition/us-ph-patient" />
                </meta>
                <text>
                    <status value="generated" />
                    <div xmlns="http://www.w3.org/1999/xhtml">This is a simple narrative with only plain text</div>
                </text>
                <extension url="http://hl7.org/fhir/us/core/StructureDefinition/us-core-race">
                    <extension url="ombCategory">
                        <valueCoding>
                            <system value="urn:oid:2.16.840.1.113883.6.238" />
                            <code value="2106-3" />
                            <display value="White" />
                        </valueCoding>
                    </extension>
                    <extension url="text">
                        <valueString value="White" />
                    </extension>
                </extension>
                <extension url="http://hl7.org/fhir/us/core/StructureDefinition/us-core-ethnicity">
                    <extension url="ombCategory">
                        <valueCoding>
                            <system value="urn:oid:2.16.840.1.113883.6.238" />
                            <code value="2186-5" />
                            <display value="Not Hispanic or Latino" />
                        </valueCoding>
                    </extension>
                    <extension url="text">
                        <valueString value="Not Hispanic or Latino" />
                    </extension>
                </extension>
                <identifier>
                    <use value="usual" />
                    <type>
                        <coding>
                            <system value="http://terminology.hl7.org/CodeSystem/v2-0203" />
                            <code value="MR" />
                            <display value="Medical Record Number" />
                        </coding>
                        <text value="Medical Record Number" />
                    </type>
                    <system value="http://hospital.smarthealthit.org" />
                    <value value="940101" />
                </identifier>
                <name>
                    <use value="official" />
                    <family value="Hamilton" />
                    <given value="Daniel" />
                    <given value="M" />
                </name>
                <telecom>
                    <system value="phone" />
                    <value value="517-425-1399" />
                    <use value="home" />
                </telecom>
                <gender value="male" />
                <birthDate value="1979-03-07" />
                <deceasedBoolean value="false" />
                <address>
                    <use value="home" />
                    <line value="9222 Gray Plaza Apt. 604" />
                    <city value="Gibbschester" />
                    <state value="VT" />
                    <country value="US" />
                </address>
                <communication>
                    <language>
                        <coding>
                            <system value="urn:ietf:bcp:47" />
                            <code value="en" />
                            <display value="English" />
                        </coding>
                    </language>
                </communication>
            </Patient>
        </resource>
    </entry>
    <entry>
        <fullUrl value="http://example.org/Observation/707826a8-3b1c-4873-8ef7-7ee60d14abda" />
        <resource>
            <Observation>
                <id value="707826a8-3b1c-4873-8ef7-7ee60d14abda" />
                <meta>
                    <profile value="http://hl7.org/fhir/us/core/StructureDefinition/us-core-smokingstatus" />
                </meta>
                <text>
                    <status value="generated" />
                    <div xmlns="http://www.w3.org/1999/xhtml">This is a simple narrative with only plain text</div>
                </text>
                <status value="final" />
                <category>
                    <coding>
                        <system value="http://terminology.hl7.org/CodeSystem/observation-category" />
                        <code value="social-history" />
                        <display value="Social History" />
                    </coding>
                </category>
                <code>
                    <coding>
                        <system value="http://loinc.org" />
                        <code value="72166-2" />
                        <display value="Tobacco smoking status" />
                    </coding>
                    <text value="Tobacco smoking status" />
                </code>
                <subject>
                    <reference value="Patient/e87ead71-20d2-4654-824b-8fb891147ac5" />
                </subject>
                <effectiveDateTime value="2024-09-03T03:55:22.000951+00:00" />
                <performer>
                    <reference value="Practitioner/af314158-cb03-4f58-8775-ca29d896379b" />
                    <display value="Practitioner" />
                </performer>
                <valueCodeableConcept>
                    <coding>
                        <system value="http://snomed.info/sct" />
                        <code value="8392000" />
                        <display value="Non-smoker (finding)" />
                    </coding>
                    <text value="Non-smoker (finding)" />
                </valueCodeableConcept>
            </Observation>
        </resource>
    </entry>
    <entry>
        <fullUrl value="http://example.org/Practitioner/af314158-cb03-4f58-8775-ca29d896379b" />
        <resource>
            <Practitioner>
                <id value="af314158-cb03-4f58-8775-ca29d896379b" />
                <meta>
                    <profile value="http://hl7.org/fhir/us/core/StructureDefinition/us-core-practitioner" />
                </meta>
                <text>
                    <status value="generated" />
                    <div xmlns="http://www.w3.org/1999/xhtml">This is a simple narrative with only plain text</div>
                </text>
                <identifier>
                    <system value="http://hl7.org/fhir/sid/us-npi" />
                    <value value="3393122239" />
                </identifier>
                <name>
                    <use value="official" />
                    <family value="Jones" />
                    <given value="Christina" />
                </name>
            </Practitioner>
        </resource>
    </entry>
    <entry>
        <fullUrl value="http://example.org/Organization/39ab4e8a-4f6c-4172-a026-68300d325aaf" />
        <resource>
            <Organization>
                <id value="39ab4e8a-4f6c-4172-a026-68300d325aaf" />
                <meta>
                    <profile value="http://hl7.org/fhir/us/ph-library/StructureDefinition/us-ph-organization" />
                </meta>
                <text>
                    <status value="generated" />
                    <div xmlns="http://www.w3.org/1999/xhtml">This is a simple narrative with only plain text</div>
                </text>
                <active value="true" />
                <name value="Hospital W" />
                <telecom>
                    <system value="phone" />
                    <value value="(+1) 734-677-7777" />
                </telecom>
                <address>
                    <use value="work" />
                    <line value="72634 Taylor Ferry" />
                    <state value="VT" />
                    <country value="US" />
                </address>
            </Organization>
        </resource>
    </entry>
    <entry>
        <fullUrl value="http://example.org/Encounter/afd26895-adb1-42da-b159-c602366b89fa" />
        <resource>
            <Encounter>
                <id value="afd26895-adb1-42da-b159-c602366b89fa" />
                <meta>
                    <profile value="http://hl7.org/fhir/us/ph-library/StructureDefinition/us-ph-encounter" />
                </meta>
                <text>
                    <status value="generated" />
                    <div xmlns="http://www.w3.org/1999/xhtml">This is a simple narrative with only plain text</div>
                </text>
                <status value="finished" />
                <class>
                    <system value="http://terminology.hl7.org/CodeSystem/v3-ActCode" />
                    <code value="AMB" />
                    <display value="ambulatory" />
                </class>
                <type>
                    <coding>
                        <system value="http://www.ama-assn.org/go/cpt" />
                        <code value="99213" />
                        <display
                            value="Office or other outpatient visit for the evaluation and management of an established patient, which requires a medically appropriate history and/or examination and low level of medical decision making. When using time for code selection, 20-29 minutes of total time is spent on the date of the encounter."
                         />
                    </coding>
                    <text value="Office Visit" />
                </type>
                <subject>
                    <reference value="Patient/e87ead71-20d2-4654-824b-8fb891147ac5" />
                </subject>
                <participant>
                    <individual>
                        <reference value="Practitioner/af314158-cb03-4f58-8775-ca29d896379b" />
                    </individual>
                </participant>
                <period>
                    <start value="2024-03-16T22:40:34-04:00" />
                    <end value="2024-03-24T22:58:49-04:00" />
                </period>
                <location>
                    <location>
                        <reference value="Location/d1636409-8269-4758-9130-20daf48d02f6" />
                        <display value="Clinic Bldg A, Salem Medical Center, 4444 Healthcare Drive, Ann Arbor MI, 99999" />
                    </location>
                </location>
                <serviceProvider>
                    <reference value="Organization/39ab4e8a-4f6c-4172-a026-68300d325aaf" />
                </serviceProvider>
            </Encounter>
        </resource>
    </entry>
    <entry>
        <fullUrl value="http://example.org/Location/d1636409-8269-4758-9130-20daf48d02f1" />
        <resource>
            <Location>
                <id value="d1636409-8269-4758-9130-20daf48d02f1" />
                <meta>
                    <profile value="http://hl7.org/fhir/us/ph-library/StructureDefinition/us-ph-location" />
                </meta>
                <text>
                    <status value="generated" />
                    <div xmlns="http://www.w3.org/1999/xhtml">This is a simple narrative with only plain text</div>
                </text>
                <identifier>
                    <system value="http://hl7.org/fhir/sid/us-npi" />
                    <value value="1063494177" />
                </identifier>
                <status value="active" />
                <name value="Clinic Bldg A, Salem Medical Center" />
                <type>
                    <coding>
                        <system value="http://terminology.hl7.org/CodeSystem/v3-RoleCode" />
                        <code value="HOSP" />
                        <display value="Hospital" />
                    </coding>
                </type>
                <telecom>
                    <system value="phone" />
                    <value value="(+1) (555)555-3001" />
                </telecom>
                <telecom>
                    <system value="fax" />
                    <value value="(+1) (555)555-3002" />
                </telecom>
                <telecom>
                    <system value="email" />
                    <value value="mail@smc.org" />
                </telecom>
                <address>
                    <line value="Clinic Bldg A" />
                    <line value="4444 Healthcare Drive" />
                    <city value="Ann Arbor" />
                    <state value="MI" />
                    <postalCode value="99999" />
                </address>
                <managingOrganization>
                    <reference value="Organization/39ab4e8a-4f6c-4172-a026-68300d325aaf" />
                </managingOrganization>
            </Location>
        </resource>
    </entry>
    <entry>
        <fullUrl value="http://example.org/Condition/3c9a5dba-2158-48e9-b699-be5a84e3029e" />
        <resource>
            <Condition>
                <id value="3c9a5dba-2158-48e9-b699-be5a84e3029e" />
                <meta>
                    <profile value="http://hl7.org/fhir/us/ph-library/StructureDefinition/us-ph-condition-encounter-diagnosis" />
                </meta>
                <text>
                    <status value="generated" />
                    <div xmlns="http://www.w3.org/1999/xhtml">This is a simple narrative with only plain text</div>
                </text>
                <clinicalStatus>
                    <coding>
                        <system value="http://terminology.hl7.org/CodeSystem/condition-clinical" />
                        <code value="active" />
                        <display value="Active" />
                    </coding>
                </clinicalStatus>
                <verificationStatus>
                    <coding>
                        <system value="http://terminology.hl7.org/CodeSystem/condition-ver-status" />
                        <code value="confirmed" />
                        <display value="Confirmed" />
                    </coding>
                </verificationStatus>
                <category>
                    <coding>
                        <system value="http://terminology.hl7.org/CodeSystem/condition-category" />
                        <code value="encounter-diagnosis" />
                        <display value="Encounter Diagnosis" />
                    </coding>
                </category>
                <code>
                    <coding>
                        <system value="http://hl7.org/fhir/sid/icd-10-cm" />
                        <code value="A54.00" />
                        <display value="Gonococcal infection of lower genitourinary tract, unspecified" />
                    </coding>
                    <text value="Gonococcal infection of lower genitourinary tract, unspecified" />
                </code>
                <subject>
                    <reference value="Patient/e87ead71-20d2-4654-824b-8fb891147ac5" />
                </subject>
                <encounter>
                    <reference value="Encounter/afd26895-adb1-42da-b159-c602366b89fa" />
                </encounter>
                <recordedDate value="2024-03-19T14:30:32-04:00" />
            </Condition>
        </resource>
    </entry>
    <entry>
        <fullUrl value="http://example.org/MedicationRequest/6fdb5440-226c-4dd7-a0eb-712490bc6b90" />
        <resource>
            <MedicationRequest>
                <id value="6fdb5440-226c-4dd7-a0eb-712490bc6b90" />
                <meta>
                    <profile value="http://hl7.org/fhir/us/core/StructureDefinition/us-core-medicationrequest" />
                </meta>
                <text>
                    <status value="generated" />
                    <div xmlns="http://www.w3.org/1999/xhtml">This is a simple narrative with only plain text</div>
                </text>
                <status value="completed" />
                <intent value="order" />
                <medicationCodeableConcept>
                    <coding>
                        <system value="http://www.nlm.nih.gov/research/umls/rxnorm" />
                        <code value="309090" />
                        <display value="ceftriaxone 100 MG/ML Injectable Solution" />
                    </coding>
                    <text value="ceftriaxone 100 MG/ML Injectable Solution" />
                </medicationCodeableConcept>
                <subject>
                    <reference value="Patient/e87ead71-20d2-4654-824b-8fb891147ac5" />
                </subject>
                <encounter>
                    <reference value="Encounter/afd26895-adb1-42da-b159-c602366b89fa" />
                </encounter>
                <authoredOn value="2024-06-24T11:15:51-04:00" />
                <requester>
                    <reference value="Practitioner/af314158-cb03-4f58-8775-ca29d896379b" />
                </requester>
                <reasonCode>
                    <coding>
                        <system value="http://hl7.org/fhir/sid/icd-10-cm" />
                        <code value="A54.00" />
                        <display value="Gonococcal infection of lower genitourinary tract, unspecified" />
                    </coding>
                    <text value="Gonococcal infection of lower genitourinary tract, unspecified" />
                </reasonCode>
                <reasonCode>
                    <coding>
                        <system value="http://snomed.info/sct" />
                        <code value="788961008" />
                        <display value="Infection of the penile urethra caused by Neisseria gonorrhoeae (disorder)" />
                    </coding>
                    <text value="Infection of the penile urethra caused by Neisseria gonorrhoeae (disorder)" />
                </reasonCode>
                <reasonReference>
                    <reference value="Condition/3c9a5dba-2158-48e9-b699-be5a84e3029e" />
                </reasonReference>
                <dosageInstruction>
                    <text value="IM 500mg/single dose" />
                </dosageInstruction>
            </MedicationRequest>
        </resource>
    </entry>
    <entry>
        <fullUrl value="http://example.org/Specimen/3949c695-cd30-44c4-aa91-db6b17107a3a" />
        <resource>
            <Specimen>
                <id value="3949c695-cd30-44c4-aa91-db6b17107a3a" />
                <meta>
                    <profile value="http://hl7.org/fhir/us/ph-library/StructureDefinition/us-ph-specimen" />
                </meta>
                <text>
                    <status value="generated" />
                    <div xmlns="http://www.w3.org/1999/xhtml">This is a simple narrative with only plain text</div>
                </text>
                <type>
                    <coding>
                        <system value="http://terminology.hl7.org/CodeSystem/v2-0487" />
                        <code value="SMN" />
                        <display value="Seminal fluid" />
                    </coding>
                </type>
                <subject>
                    <reference value="Patient/e87ead71-20d2-4654-824b-8fb891147ac5" />
                </subject>
            </Specimen>
        </resource>
    </entry>
    <entry>
        <fullUrl value="http://example.org/Observation/584c5b2b-06d8-4796-bda3-5fdc441a43e7" />
        <resource>
            <Observation>
                <id value="584c5b2b-06d8-4796-bda3-5fdc441a43e7" />
                <meta>
                    <profile value="http://hl7.org/fhir/us/ph-library/StructureDefinition/us-ph-lab-result-observation" />
                </meta>
                <text>
                    <status value="generated" />
                    <div xmlns="http://www.w3.org/1999/xhtml">This is a simple narrative with only plain text</div>
                </text>
                <status value="final" />
                <category>
                    <coding>
                        <system value="http://terminology.hl7.org/CodeSystem/observation-category" />
                        <code value="laboratory" />
                        <display value="Laboratory" />
                    </coding>
                </category>
                <code>
                    <coding>
                        <system value="http://loinc.org" />
                        <code value="47387-6" />
                        <display value="Neisseria gonorrhoeae DNA [Presence] in Genital specimen by NAA with probe detection" />
                    </coding>
                </code>
                <subject>
                    <reference value="Patient/e87ead71-20d2-4654-824b-8fb891147ac5" />
                </subject>
                <encounter>
                    <reference value="Encounter/afd26895-adb1-42da-b159-c602366b89fa" />
                </encounter>
                <effectiveDateTime value="2024-07-12" />
                <performer>
                    <reference value="Practitioner/af314158-cb03-4f58-8775-ca29d896379b" />
                    <display value="Practitioner" />
                </performer>
                <valueCodeableConcept>
                    <coding>
                        <system value="http://snomed.info/sct" />
                        <code value="260373001" />
                        <display value="Detected" />
                    </coding>
                </valueCodeableConcept>
                <interpretation>
                    <coding>
                        <system value="http://terminology.hl7.org/CodeSystem/v3-ObservationInterpretation" />
                        <code value="POS" />
                        <display value="Positive" />
                    </coding>
                </interpretation>
                <specimen>
                    <reference value="Specimen/3949c695-cd30-44c4-aa91-db6b17107a3a" />
                </specimen>
            </Observation>
        </resource>
    </entry>
    <entry>
        <fullUrl value="http://example.org/Observation/ebcbeab8-fe91-47a2-9c8e-36ea3671024d" />
        <resource>
            <Observation>
                <id value="ebcbeab8-fe91-47a2-9c8e-36ea3671024d" />
                <meta>
                    <profile value="http://hl7.org/fhir/us/ph-library/StructureDefinition/us-ph-pregnancy-status-observation" />
                </meta>
                <text>
                    <status value="generated" />
                    <div xmlns="http://www.w3.org/1999/xhtml">This is a simple narrative with only plain text</div>
                </text>
                <status value="final" />
                <category>
                    <coding>
                        <system value="http://terminology.hl7.org/CodeSystem/observation-category" />
                        <code value="social-history" />
                        <display value="Social History" />
                    </coding>
                </category>
                <code>
                    <coding>
                        <system value="http://loinc.org" />
                        <code value="82810-3" />
                        <display value="Pregnancy status" />
                    </coding>
                    <text value="Pregnancy status" />
                </code>
                <subject>
                    <reference value="Patient/e87ead71-20d2-4654-824b-8fb891147ac5" />
                </subject>
                <effectiveDateTime value="2024-09-03T03:55:22.004454+00:00" />
                <performer>
                    <reference value="Practitioner/af314158-cb03-4f58-8775-ca29d896379b" />
                    <display value="Practitioner" />
                </performer>
                <valueCodeableConcept>
                    <coding>
                        <system value="http://snomed.info/sct" />
                        <code value="60001007" />
                        <display value="Not pregnant (finding)" />
                    </coding>
                    <text value="Not pregnant (finding)" />
                </valueCodeableConcept>
            </Observation>
        </resource>
    </entry>
</Bundle>
