<?xml version="1.0" encoding="UTF-8"?>
<Bundle xmlns="http://hl7.org/fhir">
    <id value="a79db9d4-5b3e-4fe9-977e-e18b347f19c9" />
    <meta>
        <profile value="http://hl7.org/fhir/us/ph-library/StructureDefinition/us-ph-content-bundle" />
    </meta>
    <type value="collection" />
    <entry>
        <fullUrl value="http://example.org/Patient/d5eb8ca7-c86e-4c66-aac0-08232e489b34" />
        <resource>
            <Patient>
                <id value="d5eb8ca7-c86e-4c66-aac0-08232e489b34" />
                <meta>
                    <profile value="http://hl7.org/fhir/us/ph-library/StructureDefinition/us-ph-patient" />
                </meta>
                <text>
                    <status value="generated" />
                    <div xmlns="http://www.w3.org/1999/xhtml">This is a simple narrative with only plain text</div>
                </text>
                <extension url="http://hl7.org/fhir/us/core/StructureDefinition/us-core-race">
                    <extension url="ombCategory">
                        <valueCoding>
                            <system value="urn:oid:2.16.840.1.113883.6.238" />
                            <code value="2106-3" />
                            <display value="White" />
                        </valueCoding>
                    </extension>
                    <extension url="text">
                        <valueString value="White" />
                    </extension>
                </extension>
                <extension url="http://hl7.org/fhir/us/core/StructureDefinition/us-core-ethnicity">
                    <extension url="ombCategory">
                        <valueCoding>
                            <system value="urn:oid:2.16.840.1.113883.6.238" />
                            <code value="2135-2" />
                            <display value="Hispanic or Latino" />
                        </valueCoding>
                    </extension>
                    <extension url="text">
                        <valueString value="Hispanic or Latino" />
                    </extension>
                </extension>
                <identifier>
                    <use value="usual" />
                    <type>
                        <coding>
                            <system value="http://terminology.hl7.org/CodeSystem/v2-0203" />
                            <code value="MR" />
                            <display value="Medical Record Number" />
                        </coding>
                        <text value="Medical Record Number" />
                    </type>
                    <system value="http://hospital.smarthealthit.org" />
                    <value value="639660" />
                </identifier>
                <name>
                    <use value="official" />
                    <family value="Hudson" />
                    <given value="Lynda" />
                    <given value="I" />
                </name>
                <telecom>
                    <system value="phone" />
                    <value value="517-425-1399" />
                    <use value="home" />
                </telecom>
                <gender value="female" />
                <birthDate value="2005-04-09" />
                <deceasedBoolean value="false" />
                <address>
                    <use value="home" />
                    <line value="389 Rivera Highway Suite 985" />
                    <city value="Danielhaven" />
                    <state value="NV" />
                    <country value="US" />
                </address>
                <communication>
                    <language>
                        <coding>
                            <system value="urn:ietf:bcp:47" />
                            <code value="en" />
                            <display value="English" />
                        </coding>
                    </language>
                </communication>
            </Patient>
        </resource>
    </entry>
    <entry>
        <fullUrl value="http://example.org/Observation/c13fa7cc-91c1-4560-a212-943ed422bdc2" />
        <resource>
            <Observation>
                <id value="c13fa7cc-91c1-4560-a212-943ed422bdc2" />
                <meta>
                    <profile value="http://hl7.org/fhir/us/core/StructureDefinition/us-core-smokingstatus" />
                </meta>
                <text>
                    <status value="generated" />
                    <div xmlns="http://www.w3.org/1999/xhtml">This is a simple narrative with only plain text</div>
                </text>
                <status value="final" />
                <category>
                    <coding>
                        <system value="http://terminology.hl7.org/CodeSystem/observation-category" />
                        <code value="social-history" />
                        <display value="Social History" />
                    </coding>
                </category>
                <code>
                    <coding>
                        <system value="http://loinc.org" />
                        <code value="72166-2" />
                        <display value="Tobacco smoking status" />
                    </coding>
                    <text value="Tobacco smoking status" />
                </code>
                <subject>
                    <reference value="Patient/d5eb8ca7-c86e-4c66-aac0-08232e489b34" />
                </subject>
                <effectiveDateTime value="2024-09-03T03:55:17.472312+00:00" />
                <performer>
                    <reference value="Practitioner/bf7f447b-027c-4972-bb67-12f8ae87b5f8" />
                    <display value="Practitioner" />
                </performer>
                <valueCodeableConcept>
                    <coding>
                        <system value="http://snomed.info/sct" />
                        <code value="56771006" />
                        <display value="Heavy smoker (over 20 per day) (finding)" />
                    </coding>
                    <text value="Heavy smoker (over 20 per day) (finding)" />
                </valueCodeableConcept>
            </Observation>
        </resource>
    </entry>
    <entry>
        <fullUrl value="http://example.org/Practitioner/bf7f447b-027c-4972-bb67-12f8ae87b5f8" />
        <resource>
            <Practitioner>
                <id value="bf7f447b-027c-4972-bb67-12f8ae87b5f8" />
                <meta>
                    <profile value="http://hl7.org/fhir/us/core/StructureDefinition/us-core-practitioner" />
                </meta>
                <text>
                    <status value="generated" />
                    <div xmlns="http://www.w3.org/1999/xhtml">This is a simple narrative with only plain text</div>
                </text>
                <identifier>
                    <system value="http://hl7.org/fhir/sid/us-npi" />
                    <value value="1043381841" />
                </identifier>
                <name>
                    <use value="official" />
                    <family value="Sandoval" />
                    <given value="William" />
                </name>
            </Practitioner>
        </resource>
    </entry>
    <entry>
        <fullUrl value="http://example.org/Organization/e3b4a860-e480-44eb-ae93-c4ea2f99067c" />
        <resource>
            <Organization>
                <id value="e3b4a860-e480-44eb-ae93-c4ea2f99067c" />
                <meta>
                    <profile value="http://hl7.org/fhir/us/ph-library/StructureDefinition/us-ph-organization" />
                </meta>
                <text>
                    <status value="generated" />
                    <div xmlns="http://www.w3.org/1999/xhtml">This is a simple narrative with only plain text</div>
                </text>
                <active value="true" />
                <name value="Hospital I" />
                <telecom>
                    <system value="phone" />
                    <value value="(+1) 734-677-7777" />
                </telecom>
                <address>
                    <use value="work" />
                    <line value="34503 Walker Tunnel Apt. 922" />
                    <state value="NV" />
                    <country value="US" />
                </address>
            </Organization>
        </resource>
    </entry>
    <entry>
        <fullUrl value="http://example.org/Encounter/a5f91988-a45e-49bf-b562-c49b86ec7c04" />
        <resource>
            <Encounter>
                <id value="a5f91988-a45e-49bf-b562-c49b86ec7c04" />
                <meta>
                    <profile value="http://hl7.org/fhir/us/ph-library/StructureDefinition/us-ph-encounter" />
                </meta>
                <text>
                    <status value="generated" />
                    <div xmlns="http://www.w3.org/1999/xhtml">This is a simple narrative with only plain text</div>
                </text>
                <status value="finished" />
                <class>
                    <system value="http://terminology.hl7.org/CodeSystem/v3-ActCode" />
                    <code value="AMB" />
                    <display value="ambulatory" />
                </class>
                <type>
                    <coding>
                        <system value="http://www.ama-assn.org/go/cpt" />
                        <code value="99213" />
                        <display
                            value="Office or other outpatient visit for the evaluation and management of an established patient, which requires a medically appropriate history and/or examination and low level of medical decision making. When using time for code selection, 20-29 minutes of total time is spent on the date of the encounter."
                         />
                    </coding>
                    <text value="Office Visit" />
                </type>
                <subject>
                    <reference value="Patient/d5eb8ca7-c86e-4c66-aac0-08232e489b34" />
                </subject>
                <participant>
                    <individual>
                        <reference value="Practitioner/bf7f447b-027c-4972-bb67-12f8ae87b5f8" />
                    </individual>
                </participant>
                <period>
                    <start value="2024-04-17T01:52:20-04:00" />
                    <end value="2024-06-18T13:29:03-04:00" />
                </period>
                <location>
                    <location>
                        <reference value="Location/d1636409-8269-4758-9130-20daf48d02f6" />
                        <display value="Clinic Bldg A, Salem Medical Center, 4444 Healthcare Drive, Ann Arbor MI, 99999" />
                    </location>
                </location>
                <serviceProvider>
                    <reference value="Organization/e3b4a860-e480-44eb-ae93-c4ea2f99067c" />
                </serviceProvider>
            </Encounter>
        </resource>
    </entry>
    <entry>
        <fullUrl value="http://example.org/Location/d1636409-8269-4758-9130-20daf48d02f1" />
        <resource>
            <Location>
                <id value="d1636409-8269-4758-9130-20daf48d02f1" />
                <meta>
                    <profile value="http://hl7.org/fhir/us/ph-library/StructureDefinition/us-ph-location" />
                </meta>
                <text>
                    <status value="generated" />
                    <div xmlns="http://www.w3.org/1999/xhtml">This is a simple narrative with only plain text</div>
                </text>
                <identifier>
                    <system value="http://hl7.org/fhir/sid/us-npi" />
                    <value value="1063494177" />
                </identifier>
                <status value="active" />
                <name value="Clinic Bldg A, Salem Medical Center" />
                <type>
                    <coding>
                        <system value="http://terminology.hl7.org/CodeSystem/v3-RoleCode" />
                        <code value="HOSP" />
                        <display value="Hospital" />
                    </coding>
                </type>
                <telecom>
                    <system value="phone" />
                    <value value="(+1) (555)555-3001" />
                </telecom>
                <telecom>
                    <system value="fax" />
                    <value value="(+1) (555)555-3002" />
                </telecom>
                <telecom>
                    <system value="email" />
                    <value value="mail@smc.org" />
                </telecom>
                <address>
                    <line value="Clinic Bldg A" />
                    <line value="4444 Healthcare Drive" />
                    <city value="Ann Arbor" />
                    <state value="MI" />
                    <postalCode value="99999" />
                </address>
                <managingOrganization>
                    <reference value="Organization/e3b4a860-e480-44eb-ae93-c4ea2f99067c" />
                </managingOrganization>
            </Location>
        </resource>
    </entry>
    <entry>
        <fullUrl value="http://example.org/Condition/1ff7b0e6-8aef-4825-bb17-894a501f2fd9" />
        <resource>
            <Condition>
                <id value="1ff7b0e6-8aef-4825-bb17-894a501f2fd9" />
                <meta>
                    <profile value="http://hl7.org/fhir/us/ph-library/StructureDefinition/us-ph-condition-encounter-diagnosis" />
                </meta>
                <text>
                    <status value="generated" />
                    <div xmlns="http://www.w3.org/1999/xhtml">This is a simple narrative with only plain text</div>
                </text>
                <clinicalStatus>
                    <coding>
                        <system value="http://terminology.hl7.org/CodeSystem/condition-clinical" />
                        <code value="active" />
                        <display value="Active" />
                    </coding>
                </clinicalStatus>
                <verificationStatus>
                    <coding>
                        <system value="http://terminology.hl7.org/CodeSystem/condition-ver-status" />
                        <code value="confirmed" />
                        <display value="Confirmed" />
                    </coding>
                </verificationStatus>
                <category>
                    <coding>
                        <system value="http://terminology.hl7.org/CodeSystem/condition-category" />
                        <code value="encounter-diagnosis" />
                        <display value="Encounter Diagnosis" />
                    </coding>
                </category>
                <code>
                    <coding>
                        <system value="http://hl7.org/fhir/sid/icd-10-cm" />
                        <code value="A54.03" />
                        <display value="Gonococcal cervicitis, unspecified" />
                    </coding>
                    <text value="Gonococcal cervicitis, unspecified" />
                </code>
                <subject>
                    <reference value="Patient/d5eb8ca7-c86e-4c66-aac0-08232e489b34" />
                </subject>
                <encounter>
                    <reference value="Encounter/a5f91988-a45e-49bf-b562-c49b86ec7c04" />
                </encounter>
                <recordedDate value="2024-04-01T15:18:27-04:00" />
            </Condition>
        </resource>
    </entry>
    <entry>
        <fullUrl value="http://example.org/MedicationRequest/54b63351-7605-407e-8f32-9dd22653e6a5" />
        <resource>
            <MedicationRequest>
                <id value="54b63351-7605-407e-8f32-9dd22653e6a5" />
                <meta>
                    <profile value="http://hl7.org/fhir/us/core/StructureDefinition/us-core-medicationrequest" />
                </meta>
                <text>
                    <status value="generated" />
                    <div xmlns="http://www.w3.org/1999/xhtml">This is a simple narrative with only plain text</div>
                </text>
                <status value="completed" />
                <intent value="order" />
                <medicationCodeableConcept>
                    <coding>
                        <system value="http://www.nlm.nih.gov/research/umls/rxnorm" />
                        <code value="309090" />
                        <display value="ceftriaxone 100 MG/ML Injectable Solution" />
                    </coding>
                    <text value="ceftriaxone 100 MG/ML Injectable Solution" />
                </medicationCodeableConcept>
                <subject>
                    <reference value="Patient/d5eb8ca7-c86e-4c66-aac0-08232e489b34" />
                </subject>
                <encounter>
                    <reference value="Encounter/a5f91988-a45e-49bf-b562-c49b86ec7c04" />
                </encounter>
                <authoredOn value="2024-05-06T07:23:00-04:00" />
                <requester>
                    <reference value="Practitioner/bf7f447b-027c-4972-bb67-12f8ae87b5f8" />
                </requester>
                <reasonCode>
                    <coding>
                        <system value="http://hl7.org/fhir/sid/icd-10-cm" />
                        <code value="A54.03" />
                        <display value="Gonococcal cervicitis, unspecified" />
                    </coding>
                    <text value="Gonococcal cervicitis, unspecified" />
                </reasonCode>
                <reasonCode>
                    <coding>
                        <system value="http://snomed.info/sct" />
                        <code value="236682002" />
                        <display value="Gonococcal urethritis" />
                    </coding>
                    <text value="Gonococcal urethritis" />
                </reasonCode>
                <reasonReference>
                    <reference value="Condition/1ff7b0e6-8aef-4825-bb17-894a501f2fd9" />
                </reasonReference>
                <dosageInstruction>
                    <text value="IM 500mg/single dose" />
                </dosageInstruction>
            </MedicationRequest>
        </resource>
    </entry>
    <entry>
        <fullUrl value="http://example.org/Specimen/8a4f8cca-abb2-4e39-af48-8e2b641d3d6c" />
        <resource>
            <Specimen>
                <id value="8a4f8cca-abb2-4e39-af48-8e2b641d3d6c" />
                <meta>
                    <profile value="http://hl7.org/fhir/us/ph-library/StructureDefinition/us-ph-specimen" />
                </meta>
                <text>
                    <status value="generated" />
                    <div xmlns="http://www.w3.org/1999/xhtml">This is a simple narrative with only plain text</div>
                </text>
                <type>
                    <coding>
                        <system value="http://terminology.hl7.org/CodeSystem/v2-0487" />
                        <code value="GENV" />
                        <display value="Genital vaginal" />
                    </coding>
                </type>
                <subject>
                    <reference value="Patient/d5eb8ca7-c86e-4c66-aac0-08232e489b34" />
                </subject>
            </Specimen>
        </resource>
    </entry>
    <entry>
        <fullUrl value="http://example.org/Observation/df65e52b-a0a6-48da-ba2c-b03f1f46abab" />
        <resource>
            <Observation>
                <id value="df65e52b-a0a6-48da-ba2c-b03f1f46abab" />
                <meta>
                    <profile value="http://hl7.org/fhir/us/ph-library/StructureDefinition/us-ph-lab-result-observation" />
                </meta>
                <text>
                    <status value="generated" />
                    <div xmlns="http://www.w3.org/1999/xhtml">This is a simple narrative with only plain text</div>
                </text>
                <status value="final" />
                <category>
                    <coding>
                        <system value="http://terminology.hl7.org/CodeSystem/observation-category" />
                        <code value="laboratory" />
                        <display value="Laboratory" />
                    </coding>
                </category>
                <code>
                    <coding>
                        <system value="http://loinc.org" />
                        <code value="21415-5" />
                        <display value="Neisseria gonorrhoeae DNA [Presence] in Urethra by NAA with probe detection" />
                    </coding>
                </code>
                <subject>
                    <reference value="Patient/d5eb8ca7-c86e-4c66-aac0-08232e489b34" />
                </subject>
                <encounter>
                    <reference value="Encounter/a5f91988-a45e-49bf-b562-c49b86ec7c04" />
                </encounter>
                <effectiveDateTime value="2024-07-08" />
                <performer>
                    <reference value="Practitioner/bf7f447b-027c-4972-bb67-12f8ae87b5f8" />
                    <display value="Practitioner" />
                </performer>
                <valueCodeableConcept>
                    <coding>
                        <system value="http://snomed.info/sct" />
                        <code value="260373001" />
                        <display value="Detected" />
                    </coding>
                </valueCodeableConcept>
                <interpretation>
                    <coding>
                        <system value="http://terminology.hl7.org/CodeSystem/v3-ObservationInterpretation" />
                        <code value="POS" />
                        <display value="Positive" />
                    </coding>
                </interpretation>
                <specimen>
                    <reference value="Specimen/8a4f8cca-abb2-4e39-af48-8e2b641d3d6c" />
                </specimen>
            </Observation>
        </resource>
    </entry>
    <entry>
        <fullUrl value="http://example.org/Observation/d3ff8f7a-2da8-41ff-9151-1084a9eab9fa" />
        <resource>
            <Observation>
                <id value="d3ff8f7a-2da8-41ff-9151-1084a9eab9fa" />
                <meta>
                    <profile value="http://hl7.org/fhir/us/ph-library/StructureDefinition/us-ph-pregnancy-status-observation" />
                </meta>
                <text>
                    <status value="generated" />
                    <div xmlns="http://www.w3.org/1999/xhtml">This is a simple narrative with only plain text</div>
                </text>
                <status value="final" />
                <category>
                    <coding>
                        <system value="http://terminology.hl7.org/CodeSystem/observation-category" />
                        <code value="social-history" />
                        <display value="Social History" />
                    </coding>
                </category>
                <code>
                    <coding>
                        <system value="http://loinc.org" />
                        <code value="82810-3" />
                        <display value="Pregnancy status" />
                    </coding>
                    <text value="Pregnancy status" />
                </code>
                <subject>
                    <reference value="Patient/d5eb8ca7-c86e-4c66-aac0-08232e489b34" />
                </subject>
                <effectiveDateTime value="2024-09-03T03:55:17.474491+00:00" />
                <performer>
                    <reference value="Practitioner/bf7f447b-027c-4972-bb67-12f8ae87b5f8" />
                    <display value="Practitioner" />
                </performer>
                <valueCodeableConcept>
                    <coding>
                        <system value="http://snomed.info/sct" />
                        <code value="60001007" />
                        <display value="Not pregnant (finding)" />
                    </coding>
                    <text value="Not pregnant (finding)" />
                </valueCodeableConcept>
            </Observation>
        </resource>
    </entry>
</Bundle>
