<?xml version="1.0" encoding="UTF-8"?>
<Bundle xmlns="http://hl7.org/fhir">
    <id value="3b53cbea-6b09-4d44-964c-01dc49d3bd3f" />
    <meta>
        <profile value="http://hl7.org/fhir/us/ph-library/StructureDefinition/us-ph-content-bundle" />
    </meta>
    <type value="collection" />
    <entry>
        <fullUrl value="http://example.org/Patient/4f8aa376-b29c-421b-93d8-bbfd3aa1c608" />
        <resource>
            <Patient>
                <id value="4f8aa376-b29c-421b-93d8-bbfd3aa1c608" />
                <meta>
                    <profile value="http://hl7.org/fhir/us/ph-library/StructureDefinition/us-ph-patient" />
                </meta>
                <text>
                    <status value="generated" />
                    <div xmlns="http://www.w3.org/1999/xhtml">This is a simple narrative with only plain text</div>
                </text>
                <extension url="http://hl7.org/fhir/us/core/StructureDefinition/us-core-race">
                    <extension url="ombCategory">
                        <valueCoding>
                            <system value="urn:oid:2.16.840.1.113883.6.238" />
                            <code value="2054-5" />
                            <display value="Black or African American" />
                        </valueCoding>
                    </extension>
                    <extension url="text">
                        <valueString value="Black or African American" />
                    </extension>
                </extension>
                <extension url="http://hl7.org/fhir/us/core/StructureDefinition/us-core-ethnicity">
                    <extension url="ombCategory">
                        <valueCoding>
                            <system value="urn:oid:2.16.840.1.113883.6.238" />
                            <code value="2186-5" />
                            <display value="Not Hispanic or Latino" />
                        </valueCoding>
                    </extension>
                    <extension url="text">
                        <valueString value="Not Hispanic or Latino" />
                    </extension>
                </extension>
                <identifier>
                    <use value="usual" />
                    <type>
                        <coding>
                            <system value="http://terminology.hl7.org/CodeSystem/v2-0203" />
                            <code value="MR" />
                            <display value="Medical Record Number" />
                        </coding>
                        <text value="Medical Record Number" />
                    </type>
                    <system value="http://hospital.smarthealthit.org" />
                    <value value="549766" />
                </identifier>
                <name>
                    <use value="official" />
                    <family value="Irwin" />
                    <given value="Allen" />
                    <given value="G" />
                </name>
                <telecom>
                    <system value="phone" />
                    <value value="517-425-1399" />
                    <use value="home" />
                </telecom>
                <gender value="male" />
                <birthDate value="2000-08-02" />
                <deceasedBoolean value="false" />
                <address>
                    <use value="home" />
                    <line value="098 Kristy Shores Apt. 582" />
                    <city value="Crystalton" />
                    <state value="OH" />
                    <country value="US" />
                </address>
                <communication>
                    <language>
                        <coding>
                            <system value="urn:ietf:bcp:47" />
                            <code value="en" />
                            <display value="English" />
                        </coding>
                    </language>
                </communication>
            </Patient>
        </resource>
    </entry>
    <entry>
        <fullUrl value="http://example.org/Observation/dba200b7-84e9-4df2-a9b9-1bbf3e1a2d51" />
        <resource>
            <Observation>
                <id value="dba200b7-84e9-4df2-a9b9-1bbf3e1a2d51" />
                <meta>
                    <profile value="http://hl7.org/fhir/us/core/StructureDefinition/us-core-simple-observation" />
                </meta>
                <text>
                    <status value="generated" />
                    <div xmlns="http://www.w3.org/1999/xhtml">This is a simple narrative with only plain text</div>
                </text>
                <status value="final" />
                <category>
                    <coding>
                        <system value="http://terminology.hl7.org/CodeSystem/observation-category" />
                        <code value="social-history" />
                        <display value="Social History" />
                    </coding>
                </category>
                <code>
                    <coding>
                        <system value="http://loinc.org" />
                        <code value="85736-7" />
                        <display value="Number of sexual partners in last 12 months" />
                    </coding>
                    <text value="Number of sexual partners in last 12 months" />
                </code>
                <subject>
                    <reference value="Patient/4f8aa376-b29c-421b-93d8-bbfd3aa1c608" />
                </subject>
                <effectiveDateTime value="2024-09-03T03:55:15.517184+00:00" />
                <performer>
                    <reference value="Practitioner/a77ef540-dfd9-4fc3-a2ea-e30256d4a834" />
                    <display value="Practitioner" />
                </performer>
                <valueCodeableConcept>
                    <coding>
                        <system value="http://snomed.info/sct" />
                        <code value="228460004" />
                        <display value="Multiple current sexual partners (finding)" />
                    </coding>
                    <text value="Multiple current sexual partners (finding)" />
                </valueCodeableConcept>
            </Observation>
        </resource>
    </entry>
    <entry>
        <fullUrl value="http://example.org/Practitioner/a77ef540-dfd9-4fc3-a2ea-e30256d4a834" />
        <resource>
            <Practitioner>
                <id value="a77ef540-dfd9-4fc3-a2ea-e30256d4a834" />
                <meta>
                    <profile value="http://hl7.org/fhir/us/core/StructureDefinition/us-core-practitioner" />
                </meta>
                <text>
                    <status value="generated" />
                    <div xmlns="http://www.w3.org/1999/xhtml">This is a simple narrative with only plain text</div>
                </text>
                <identifier>
                    <system value="http://hl7.org/fhir/sid/us-npi" />
                    <value value="6740713857" />
                </identifier>
                <name>
                    <use value="official" />
                    <family value="Anthony" />
                    <given value="David" />
                </name>
            </Practitioner>
        </resource>
    </entry>
    <entry>
        <fullUrl value="http://example.org/Organization/a00a5016-c72d-4375-b9d3-b03e7dcfba1e" />
        <resource>
            <Organization>
                <id value="a00a5016-c72d-4375-b9d3-b03e7dcfba1e" />
                <meta>
                    <profile value="http://hl7.org/fhir/us/ph-library/StructureDefinition/us-ph-organization" />
                </meta>
                <text>
                    <status value="generated" />
                    <div xmlns="http://www.w3.org/1999/xhtml">This is a simple narrative with only plain text</div>
                </text>
                <active value="true" />
                <name value="Hospital G" />
                <telecom>
                    <system value="phone" />
                    <value value="(+1) 734-677-7777" />
                </telecom>
                <address>
                    <use value="work" />
                    <line value="72714 Delgado Knoll" />
                    <state value="OH" />
                    <country value="US" />
                </address>
            </Organization>
        </resource>
    </entry>
    <entry>
        <fullUrl value="http://example.org/Encounter/ab8dd57a-bdec-4197-a8b2-a110b66a51bd" />
        <resource>
            <Encounter>
                <id value="ab8dd57a-bdec-4197-a8b2-a110b66a51bd" />
                <meta>
                    <profile value="http://hl7.org/fhir/us/ph-library/StructureDefinition/us-ph-encounter" />
                </meta>
                <text>
                    <status value="generated" />
                    <div xmlns="http://www.w3.org/1999/xhtml">This is a simple narrative with only plain text</div>
                </text>
                <status value="finished" />
                <class>
                    <system value="http://terminology.hl7.org/CodeSystem/v3-ActCode" />
                    <code value="AMB" />
                    <display value="ambulatory" />
                </class>
                <type>
                    <coding>
                        <system value="http://www.ama-assn.org/go/cpt" />
                        <code value="99213" />
                        <display
                            value="Office or other outpatient visit for the evaluation and management of an established patient, which requires a medically appropriate history and/or examination and low level of medical decision making. When using time for code selection, 20-29 minutes of total time is spent on the date of the encounter."
                         />
                    </coding>
                    <text value="Office Visit" />
                </type>
                <subject>
                    <reference value="Patient/4f8aa376-b29c-421b-93d8-bbfd3aa1c608" />
                </subject>
                <participant>
                    <individual>
                        <reference value="Practitioner/a77ef540-dfd9-4fc3-a2ea-e30256d4a834" />
                    </individual>
                </participant>
                <period>
                    <start value="2024-05-29T18:50:34-04:00" />
                    <end value="2024-06-19T13:53:46-04:00" />
                </period>
                <location>
                    <location>
                        <reference value="Location/d1636409-8269-4758-9130-20daf48d02f6" />
                        <display value="Clinic Bldg A, Salem Medical Center, 4444 Healthcare Drive, Ann Arbor MI, 99999" />
                    </location>
                </location>
                <serviceProvider>
                    <reference value="Organization/a00a5016-c72d-4375-b9d3-b03e7dcfba1e" />
                </serviceProvider>
            </Encounter>
        </resource>
    </entry>
    <entry>
        <fullUrl value="http://example.org/Location/d1636409-8269-4758-9130-20daf48d02f1" />
        <resource>
            <Location>
                <id value="d1636409-8269-4758-9130-20daf48d02f1" />
                <meta>
                    <profile value="http://hl7.org/fhir/us/ph-library/StructureDefinition/us-ph-location" />
                </meta>
                <text>
                    <status value="generated" />
                    <div xmlns="http://www.w3.org/1999/xhtml">This is a simple narrative with only plain text</div>
                </text>
                <identifier>
                    <system value="http://hl7.org/fhir/sid/us-npi" />
                    <value value="1063494177" />
                </identifier>
                <status value="active" />
                <name value="Clinic Bldg A, Salem Medical Center" />
                <type>
                    <coding>
                        <system value="http://terminology.hl7.org/CodeSystem/v3-RoleCode" />
                        <code value="HOSP" />
                        <display value="Hospital" />
                    </coding>
                </type>
                <telecom>
                    <system value="phone" />
                    <value value="(+1) (555)555-3001" />
                </telecom>
                <telecom>
                    <system value="fax" />
                    <value value="(+1) (555)555-3002" />
                </telecom>
                <telecom>
                    <system value="email" />
                    <value value="mail@smc.org" />
                </telecom>
                <address>
                    <line value="Clinic Bldg A" />
                    <line value="4444 Healthcare Drive" />
                    <city value="Ann Arbor" />
                    <state value="MI" />
                    <postalCode value="99999" />
                </address>
                <managingOrganization>
                    <reference value="Organization/a00a5016-c72d-4375-b9d3-b03e7dcfba1e" />
                </managingOrganization>
            </Location>
        </resource>
    </entry>
    <entry>
        <fullUrl value="http://example.org/Condition/b4f12d05-3274-4c3a-8ee1-bfa00b30092f" />
        <resource>
            <Condition>
                <id value="b4f12d05-3274-4c3a-8ee1-bfa00b30092f" />
                <meta>
                    <profile value="http://hl7.org/fhir/us/ph-library/StructureDefinition/us-ph-condition-encounter-diagnosis" />
                </meta>
                <text>
                    <status value="generated" />
                    <div xmlns="http://www.w3.org/1999/xhtml">This is a simple narrative with only plain text</div>
                </text>
                <clinicalStatus>
                    <coding>
                        <system value="http://terminology.hl7.org/CodeSystem/condition-clinical" />
                        <code value="active" />
                        <display value="Active" />
                    </coding>
                </clinicalStatus>
                <verificationStatus>
                    <coding>
                        <system value="http://terminology.hl7.org/CodeSystem/condition-ver-status" />
                        <code value="confirmed" />
                        <display value="Confirmed" />
                    </coding>
                </verificationStatus>
                <category>
                    <coding>
                        <system value="http://terminology.hl7.org/CodeSystem/condition-category" />
                        <code value="encounter-diagnosis" />
                        <display value="Encounter Diagnosis" />
                    </coding>
                </category>
                <code>
                    <coding>
                        <system value="http://hl7.org/fhir/sid/icd-10-cm" />
                        <code value="A54.00" />
                        <display value="Gonococcal infection of lower genitourinary tract, unspecified" />
                    </coding>
                    <text value="Gonococcal infection of lower genitourinary tract, unspecified" />
                </code>
                <subject>
                    <reference value="Patient/4f8aa376-b29c-421b-93d8-bbfd3aa1c608" />
                </subject>
                <encounter>
                    <reference value="Encounter/ab8dd57a-bdec-4197-a8b2-a110b66a51bd" />
                </encounter>
                <recordedDate value="2024-01-04T10:20:37-04:00" />
            </Condition>
        </resource>
    </entry>
    <entry>
        <fullUrl value="http://example.org/MedicationRequest/ad594b56-cc37-47e1-add8-40619cd8737b" />
        <resource>
            <MedicationRequest>
                <id value="ad594b56-cc37-47e1-add8-40619cd8737b" />
                <meta>
                    <profile value="http://hl7.org/fhir/us/core/StructureDefinition/us-core-medicationrequest" />
                </meta>
                <text>
                    <status value="generated" />
                    <div xmlns="http://www.w3.org/1999/xhtml">This is a simple narrative with only plain text</div>
                </text>
                <status value="completed" />
                <intent value="order" />
                <medicationCodeableConcept>
                    <coding>
                        <system value="http://www.nlm.nih.gov/research/umls/rxnorm" />
                        <code value="309090" />
                        <display value="ceftriaxone 100 MG/ML Injectable Solution" />
                    </coding>
                    <text value="ceftriaxone 100 MG/ML Injectable Solution" />
                </medicationCodeableConcept>
                <subject>
                    <reference value="Patient/4f8aa376-b29c-421b-93d8-bbfd3aa1c608" />
                </subject>
                <encounter>
                    <reference value="Encounter/ab8dd57a-bdec-4197-a8b2-a110b66a51bd" />
                </encounter>
                <authoredOn value="2024-02-21T05:44:33-04:00" />
                <requester>
                    <reference value="Practitioner/a77ef540-dfd9-4fc3-a2ea-e30256d4a834" />
                </requester>
                <reasonCode>
                    <coding>
                        <system value="http://hl7.org/fhir/sid/icd-10-cm" />
                        <code value="A54.00" />
                        <display value="Gonococcal infection of lower genitourinary tract, unspecified" />
                    </coding>
                    <text value="Gonococcal infection of lower genitourinary tract, unspecified" />
                </reasonCode>
                <reasonCode>
                    <coding>
                        <system value="http://snomed.info/sct" />
                        <code value="788961008" />
                        <display value="Infection of the penile urethra caused by Neisseria gonorrhoeae (disorder)" />
                    </coding>
                    <text value="Infection of the penile urethra caused by Neisseria gonorrhoeae (disorder)" />
                </reasonCode>
                <reasonReference>
                    <reference value="Condition/b4f12d05-3274-4c3a-8ee1-bfa00b30092f" />
                </reasonReference>
                <dosageInstruction>
                    <text value="IM 500mg/single dose" />
                </dosageInstruction>
            </MedicationRequest>
        </resource>
    </entry>
    <entry>
        <fullUrl value="http://example.org/Specimen/dc5c6469-dfa1-4700-bf6d-8bf58b4a86eb" />
        <resource>
            <Specimen>
                <id value="dc5c6469-dfa1-4700-bf6d-8bf58b4a86eb" />
                <meta>
                    <profile value="http://hl7.org/fhir/us/ph-library/StructureDefinition/us-ph-specimen" />
                </meta>
                <text>
                    <status value="generated" />
                    <div xmlns="http://www.w3.org/1999/xhtml">This is a simple narrative with only plain text</div>
                </text>
                <type>
                    <coding>
                        <system value="http://terminology.hl7.org/CodeSystem/v2-0487" />
                        <code value="SMN" />
                        <display value="Seminal fluid" />
                    </coding>
                </type>
                <subject>
                    <reference value="Patient/4f8aa376-b29c-421b-93d8-bbfd3aa1c608" />
                </subject>
            </Specimen>
        </resource>
    </entry>
    <entry>
        <fullUrl value="http://example.org/Observation/1eeb31e3-edc3-46d4-8ba2-7cb42c25f2c2" />
        <resource>
            <Observation>
                <id value="1eeb31e3-edc3-46d4-8ba2-7cb42c25f2c2" />
                <meta>
                    <profile value="http://hl7.org/fhir/us/ph-library/StructureDefinition/us-ph-lab-result-observation" />
                </meta>
                <text>
                    <status value="generated" />
                    <div xmlns="http://www.w3.org/1999/xhtml">This is a simple narrative with only plain text</div>
                </text>
                <status value="final" />
                <category>
                    <coding>
                        <system value="http://terminology.hl7.org/CodeSystem/observation-category" />
                        <code value="laboratory" />
                        <display value="Laboratory" />
                    </coding>
                </category>
                <code>
                    <coding>
                        <system value="http://loinc.org" />
                        <code value="47387-6" />
                        <display value="Neisseria gonorrhoeae DNA [Presence] in Genital specimen by NAA with probe detection" />
                    </coding>
                </code>
                <subject>
                    <reference value="Patient/4f8aa376-b29c-421b-93d8-bbfd3aa1c608" />
                </subject>
                <encounter>
                    <reference value="Encounter/ab8dd57a-bdec-4197-a8b2-a110b66a51bd" />
                </encounter>
                <effectiveDateTime value="2024-07-06" />
                <performer>
                    <reference value="Practitioner/a77ef540-dfd9-4fc3-a2ea-e30256d4a834" />
                    <display value="Practitioner" />
                </performer>
                <valueCodeableConcept>
                    <coding>
                        <system value="http://snomed.info/sct" />
                        <code value="260373001" />
                        <display value="Detected" />
                    </coding>
                </valueCodeableConcept>
                <interpretation>
                    <coding>
                        <system value="http://terminology.hl7.org/CodeSystem/v3-ObservationInterpretation" />
                        <code value="POS" />
                        <display value="Positive" />
                    </coding>
                </interpretation>
                <specimen>
                    <reference value="Specimen/dc5c6469-dfa1-4700-bf6d-8bf58b4a86eb" />
                </specimen>
            </Observation>
        </resource>
    </entry>
    <entry>
        <fullUrl value="http://example.org/Observation/752238e8-e02f-45ae-91ac-4928c0c7de2c" />
        <resource>
            <Observation>
                <id value="752238e8-e02f-45ae-91ac-4928c0c7de2c" />
                <meta>
                    <profile value="http://hl7.org/fhir/us/ph-library/StructureDefinition/us-ph-pregnancy-status-observation" />
                </meta>
                <text>
                    <status value="generated" />
                    <div xmlns="http://www.w3.org/1999/xhtml">This is a simple narrative with only plain text</div>
                </text>
                <status value="final" />
                <category>
                    <coding>
                        <system value="http://terminology.hl7.org/CodeSystem/observation-category" />
                        <code value="social-history" />
                        <display value="Social History" />
                    </coding>
                </category>
                <code>
                    <coding>
                        <system value="http://loinc.org" />
                        <code value="82810-3" />
                        <display value="Pregnancy status" />
                    </coding>
                    <text value="Pregnancy status" />
                </code>
                <subject>
                    <reference value="Patient/4f8aa376-b29c-421b-93d8-bbfd3aa1c608" />
                </subject>
                <effectiveDateTime value="2024-09-03T03:55:15.520630+00:00" />
                <performer>
                    <reference value="Practitioner/a77ef540-dfd9-4fc3-a2ea-e30256d4a834" />
                    <display value="Practitioner" />
                </performer>
                <valueCodeableConcept>
                    <coding>
                        <system value="http://snomed.info/sct" />
                        <code value="60001007" />
                        <display value="Not pregnant (finding)" />
                    </coding>
                    <text value="Not pregnant (finding)" />
                </valueCodeableConcept>
            </Observation>
        </resource>
    </entry>
</Bundle>
