<?xml version="1.0" encoding="UTF-8"?>
<Bundle xmlns="http://hl7.org/fhir">
    <id value="463833bd-5fa9-4af9-ae6d-7bd6f983ccce" />
    <meta>
        <profile value="http://hl7.org/fhir/us/ph-library/StructureDefinition/us-ph-content-bundle" />
    </meta>
    <type value="collection" />
    <entry>
        <fullUrl value="http://example.org/Patient/c7c69537-6d61-4ce3-8a00-f8d511e44291" />
        <resource>
            <Patient>
                <id value="c7c69537-6d61-4ce3-8a00-f8d511e44291" />
                <meta>
                    <profile value="http://hl7.org/fhir/us/ph-library/StructureDefinition/us-ph-patient" />
                </meta>
                <text>
                    <status value="generated" />
                    <div xmlns="http://www.w3.org/1999/xhtml">This is a simple narrative with only plain text</div>
                </text>
                <extension url="http://hl7.org/fhir/us/core/StructureDefinition/us-core-race">
                    <extension url="ombCategory">
                        <valueCoding>
                            <system value="urn:oid:2.16.840.1.113883.6.238" />
                            <code value="2106-3" />
                            <display value="White" />
                        </valueCoding>
                    </extension>
                    <extension url="text">
                        <valueString value="White" />
                    </extension>
                </extension>
                <extension url="http://hl7.org/fhir/us/core/StructureDefinition/us-core-ethnicity">
                    <extension url="ombCategory">
                        <valueCoding>
                            <system value="urn:oid:2.16.840.1.113883.6.238" />
                            <code value="2186-5" />
                            <display value="Not Hispanic or Latino" />
                        </valueCoding>
                    </extension>
                    <extension url="text">
                        <valueString value="Not Hispanic or Latino" />
                    </extension>
                </extension>
                <identifier>
                    <use value="usual" />
                    <type>
                        <coding>
                            <system value="http://terminology.hl7.org/CodeSystem/v2-0203" />
                            <code value="MR" />
                            <display value="Medical Record Number" />
                        </coding>
                        <text value="Medical Record Number" />
                    </type>
                    <system value="http://hospital.smarthealthit.org" />
                    <value value="598070" />
                </identifier>
                <name>
                    <use value="official" />
                    <family value="James" />
                    <given value="Rodney" />
                    <given value="F" />
                </name>
                <telecom>
                    <system value="phone" />
                    <value value="517-425-1399" />
                    <use value="home" />
                </telecom>
                <gender value="male" />
                <birthDate value="1983-10-22" />
                <deceasedBoolean value="false" />
                <address>
                    <use value="home" />
                    <line value="60894 Daniel Meadows" />
                    <city value="South Garyside" />
                    <state value="MI" />
                    <country value="US" />
                </address>
                <communication>
                    <language>
                        <coding>
                            <system value="urn:ietf:bcp:47" />
                            <code value="en" />
                            <display value="English" />
                        </coding>
                    </language>
                </communication>
            </Patient>
        </resource>
    </entry>
    <entry>
        <fullUrl value="http://example.org/Observation/6fa80a63-22fa-4596-9317-81cdd2099370" />
        <resource>
            <Observation>
                <id value="6fa80a63-22fa-4596-9317-81cdd2099370" />
                <meta>
                    <profile value="http://hl7.org/fhir/us/core/StructureDefinition/us-core-smokingstatus" />
                </meta>
                <text>
                    <status value="generated" />
                    <div xmlns="http://www.w3.org/1999/xhtml">This is a simple narrative with only plain text</div>
                </text>
                <status value="final" />
                <category>
                    <coding>
                        <system value="http://terminology.hl7.org/CodeSystem/observation-category" />
                        <code value="social-history" />
                        <display value="Social History" />
                    </coding>
                </category>
                <code>
                    <coding>
                        <system value="http://loinc.org" />
                        <code value="72166-2" />
                        <display value="Tobacco smoking status" />
                    </coding>
                    <text value="Tobacco smoking status" />
                </code>
                <subject>
                    <reference value="Patient/c7c69537-6d61-4ce3-8a00-f8d511e44291" />
                </subject>
                <effectiveDateTime value="2024-09-03T03:55:14.639603+00:00" />
                <performer>
                    <reference value="Practitioner/b1f2712f-cf84-48f5-864b-d97da167f166" />
                    <display value="Practitioner" />
                </performer>
                <valueCodeableConcept>
                    <coding>
                        <system value="http://snomed.info/sct" />
                        <code value="8392000" />
                        <display value="Non-smoker (finding)" />
                    </coding>
                    <text value="Non-smoker (finding)" />
                </valueCodeableConcept>
            </Observation>
        </resource>
    </entry>
    <entry>
        <fullUrl value="http://example.org/Practitioner/b1f2712f-cf84-48f5-864b-d97da167f166" />
        <resource>
            <Practitioner>
                <id value="b1f2712f-cf84-48f5-864b-d97da167f166" />
                <meta>
                    <profile value="http://hl7.org/fhir/us/core/StructureDefinition/us-core-practitioner" />
                </meta>
                <text>
                    <status value="generated" />
                    <div xmlns="http://www.w3.org/1999/xhtml">This is a simple narrative with only plain text</div>
                </text>
                <identifier>
                    <system value="http://hl7.org/fhir/sid/us-npi" />
                    <value value="4392224000" />
                </identifier>
                <name>
                    <use value="official" />
                    <family value="Hill" />
                    <given value="Jeffrey" />
                </name>
            </Practitioner>
        </resource>
    </entry>
    <entry>
        <fullUrl value="http://example.org/Organization/0cddd9d3-b76b-40d6-a44f-e90c07d87641" />
        <resource>
            <Organization>
                <id value="0cddd9d3-b76b-40d6-a44f-e90c07d87641" />
                <meta>
                    <profile value="http://hl7.org/fhir/us/ph-library/StructureDefinition/us-ph-organization" />
                </meta>
                <text>
                    <status value="generated" />
                    <div xmlns="http://www.w3.org/1999/xhtml">This is a simple narrative with only plain text</div>
                </text>
                <active value="true" />
                <name value="Hospital F" />
                <telecom>
                    <system value="phone" />
                    <value value="(+1) 734-677-7777" />
                </telecom>
                <address>
                    <use value="work" />
                    <line value="76877 Palmer Squares Apt. 758" />
                    <state value="MI" />
                    <country value="US" />
                </address>
            </Organization>
        </resource>
    </entry>
    <entry>
        <fullUrl value="http://example.org/Encounter/3bc79341-8474-488c-a0c6-bae130d7cdd2" />
        <resource>
            <Encounter>
                <id value="3bc79341-8474-488c-a0c6-bae130d7cdd2" />
                <meta>
                    <profile value="http://hl7.org/fhir/us/ph-library/StructureDefinition/us-ph-encounter" />
                </meta>
                <text>
                    <status value="generated" />
                    <div xmlns="http://www.w3.org/1999/xhtml">This is a simple narrative with only plain text</div>
                </text>
                <status value="finished" />
                <class>
                    <system value="http://terminology.hl7.org/CodeSystem/v3-ActCode" />
                    <code value="AMB" />
                    <display value="ambulatory" />
                </class>
                <type>
                    <coding>
                        <system value="http://www.ama-assn.org/go/cpt" />
                        <code value="99213" />
                        <display
                            value="Office or other outpatient visit for the evaluation and management of an established patient, which requires a medically appropriate history and/or examination and low level of medical decision making. When using time for code selection, 20-29 minutes of total time is spent on the date of the encounter."
                         />
                    </coding>
                    <text value="Office Visit" />
                </type>
                <subject>
                    <reference value="Patient/c7c69537-6d61-4ce3-8a00-f8d511e44291" />
                </subject>
                <participant>
                    <individual>
                        <reference value="Practitioner/b1f2712f-cf84-48f5-864b-d97da167f166" />
                    </individual>
                </participant>
                <period>
                    <start value="2024-02-01T23:30:35-04:00" />
                    <end value="2024-05-04T21:29:56-04:00" />
                </period>
                <location>
                    <location>
                        <reference value="Location/d1636409-8269-4758-9130-20daf48d02f6" />
                        <display value="Clinic Bldg A, Salem Medical Center, 4444 Healthcare Drive, Ann Arbor MI, 99999" />
                    </location>
                </location>
                <serviceProvider>
                    <reference value="Organization/0cddd9d3-b76b-40d6-a44f-e90c07d87641" />
                </serviceProvider>
            </Encounter>
        </resource>
    </entry>
    <entry>
        <fullUrl value="http://example.org/Location/d1636409-8269-4758-9130-20daf48d02f1" />
        <resource>
            <Location>
                <id value="d1636409-8269-4758-9130-20daf48d02f1" />
                <meta>
                    <profile value="http://hl7.org/fhir/us/ph-library/StructureDefinition/us-ph-location" />
                </meta>
                <text>
                    <status value="generated" />
                    <div xmlns="http://www.w3.org/1999/xhtml">This is a simple narrative with only plain text</div>
                </text>
                <identifier>
                    <system value="http://hl7.org/fhir/sid/us-npi" />
                    <value value="1063494177" />
                </identifier>
                <status value="active" />
                <name value="Clinic Bldg A, Salem Medical Center" />
                <type>
                    <coding>
                        <system value="http://terminology.hl7.org/CodeSystem/v3-RoleCode" />
                        <code value="HOSP" />
                        <display value="Hospital" />
                    </coding>
                </type>
                <telecom>
                    <system value="phone" />
                    <value value="(+1) (555)555-3001" />
                </telecom>
                <telecom>
                    <system value="fax" />
                    <value value="(+1) (555)555-3002" />
                </telecom>
                <telecom>
                    <system value="email" />
                    <value value="mail@smc.org" />
                </telecom>
                <address>
                    <line value="Clinic Bldg A" />
                    <line value="4444 Healthcare Drive" />
                    <city value="Ann Arbor" />
                    <state value="MI" />
                    <postalCode value="99999" />
                </address>
                <managingOrganization>
                    <reference value="Organization/0cddd9d3-b76b-40d6-a44f-e90c07d87641" />
                </managingOrganization>
            </Location>
        </resource>
    </entry>
    <entry>
        <fullUrl value="http://example.org/Condition/ad72f425-5739-4cbd-bdb1-8745f63d260e" />
        <resource>
            <Condition>
                <id value="ad72f425-5739-4cbd-bdb1-8745f63d260e" />
                <meta>
                    <profile value="http://hl7.org/fhir/us/ph-library/StructureDefinition/us-ph-condition-encounter-diagnosis" />
                </meta>
                <text>
                    <status value="generated" />
                    <div xmlns="http://www.w3.org/1999/xhtml">This is a simple narrative with only plain text</div>
                </text>
                <clinicalStatus>
                    <coding>
                        <system value="http://terminology.hl7.org/CodeSystem/condition-clinical" />
                        <code value="active" />
                        <display value="Active" />
                    </coding>
                </clinicalStatus>
                <verificationStatus>
                    <coding>
                        <system value="http://terminology.hl7.org/CodeSystem/condition-ver-status" />
                        <code value="confirmed" />
                        <display value="Confirmed" />
                    </coding>
                </verificationStatus>
                <category>
                    <coding>
                        <system value="http://terminology.hl7.org/CodeSystem/condition-category" />
                        <code value="encounter-diagnosis" />
                        <display value="Encounter Diagnosis" />
                    </coding>
                </category>
                <code>
                    <coding>
                        <system value="http://hl7.org/fhir/sid/icd-10-cm" />
                        <code value="A54.00" />
                        <display value="Gonococcal infection of lower genitourinary tract, unspecified" />
                    </coding>
                    <text value="Gonococcal infection of lower genitourinary tract, unspecified" />
                </code>
                <subject>
                    <reference value="Patient/c7c69537-6d61-4ce3-8a00-f8d511e44291" />
                </subject>
                <encounter>
                    <reference value="Encounter/3bc79341-8474-488c-a0c6-bae130d7cdd2" />
                </encounter>
                <recordedDate value="2024-06-17T04:54:20-04:00" />
            </Condition>
        </resource>
    </entry>
    <entry>
        <fullUrl value="http://example.org/MedicationRequest/c7ff1b3b-a906-4fcd-8a5c-70c78528a20b" />
        <resource>
            <MedicationRequest>
                <id value="c7ff1b3b-a906-4fcd-8a5c-70c78528a20b" />
                <meta>
                    <profile value="http://hl7.org/fhir/us/core/StructureDefinition/us-core-medicationrequest" />
                </meta>
                <text>
                    <status value="generated" />
                    <div xmlns="http://www.w3.org/1999/xhtml">This is a simple narrative with only plain text</div>
                </text>
                <status value="completed" />
                <intent value="order" />
                <medicationCodeableConcept>
                    <coding>
                        <system value="http://www.nlm.nih.gov/research/umls/rxnorm" />
                        <code value="309090" />
                        <display value="ceftriaxone 100 MG/ML Injectable Solution" />
                    </coding>
                    <text value="ceftriaxone 100 MG/ML Injectable Solution" />
                </medicationCodeableConcept>
                <subject>
                    <reference value="Patient/c7c69537-6d61-4ce3-8a00-f8d511e44291" />
                </subject>
                <encounter>
                    <reference value="Encounter/3bc79341-8474-488c-a0c6-bae130d7cdd2" />
                </encounter>
                <authoredOn value="2024-06-09T15:07:02-04:00" />
                <requester>
                    <reference value="Practitioner/b1f2712f-cf84-48f5-864b-d97da167f166" />
                </requester>
                <reasonCode>
                    <coding>
                        <system value="http://hl7.org/fhir/sid/icd-10-cm" />
                        <code value="A54.00" />
                        <display value="Gonococcal infection of lower genitourinary tract, unspecified" />
                    </coding>
                    <text value="Gonococcal infection of lower genitourinary tract, unspecified" />
                </reasonCode>
                <reasonCode>
                    <coding>
                        <system value="http://snomed.info/sct" />
                        <code value="788961008" />
                        <display value="Infection of the penile urethra caused by Neisseria gonorrhoeae (disorder)" />
                    </coding>
                    <text value="Infection of the penile urethra caused by Neisseria gonorrhoeae (disorder)" />
                </reasonCode>
                <reasonReference>
                    <reference value="Condition/ad72f425-5739-4cbd-bdb1-8745f63d260e" />
                </reasonReference>
                <dosageInstruction>
                    <text value="IM 500mg/single dose" />
                </dosageInstruction>
            </MedicationRequest>
        </resource>
    </entry>
    <entry>
        <fullUrl value="http://example.org/Specimen/d592d3c7-f85d-468a-a1a4-1552a2cf1334" />
        <resource>
            <Specimen>
                <id value="d592d3c7-f85d-468a-a1a4-1552a2cf1334" />
                <meta>
                    <profile value="http://hl7.org/fhir/us/ph-library/StructureDefinition/us-ph-specimen" />
                </meta>
                <text>
                    <status value="generated" />
                    <div xmlns="http://www.w3.org/1999/xhtml">This is a simple narrative with only plain text</div>
                </text>
                <type>
                    <coding>
                        <system value="http://terminology.hl7.org/CodeSystem/v2-0487" />
                        <code value="SMN" />
                        <display value="Seminal fluid" />
                    </coding>
                </type>
                <subject>
                    <reference value="Patient/c7c69537-6d61-4ce3-8a00-f8d511e44291" />
                </subject>
            </Specimen>
        </resource>
    </entry>
    <entry>
        <fullUrl value="http://example.org/Observation/62c6ea74-4c8d-4c04-a9b5-a8bce7029791" />
        <resource>
            <Observation>
                <id value="62c6ea74-4c8d-4c04-a9b5-a8bce7029791" />
                <meta>
                    <profile value="http://hl7.org/fhir/us/ph-library/StructureDefinition/us-ph-lab-result-observation" />
                </meta>
                <text>
                    <status value="generated" />
                    <div xmlns="http://www.w3.org/1999/xhtml">This is a simple narrative with only plain text</div>
                </text>
                <status value="final" />
                <category>
                    <coding>
                        <system value="http://terminology.hl7.org/CodeSystem/observation-category" />
                        <code value="laboratory" />
                        <display value="Laboratory" />
                    </coding>
                </category>
                <code>
                    <coding>
                        <system value="http://loinc.org" />
                        <code value="47387-6" />
                        <display value="Neisseria gonorrhoeae DNA [Presence] in Genital specimen by NAA with probe detection" />
                    </coding>
                </code>
                <subject>
                    <reference value="Patient/c7c69537-6d61-4ce3-8a00-f8d511e44291" />
                </subject>
                <encounter>
                    <reference value="Encounter/3bc79341-8474-488c-a0c6-bae130d7cdd2" />
                </encounter>
                <effectiveDateTime value="2024-07-05" />
                <performer>
                    <reference value="Practitioner/b1f2712f-cf84-48f5-864b-d97da167f166" />
                    <display value="Practitioner" />
                </performer>
                <valueCodeableConcept>
                    <coding>
                        <system value="http://snomed.info/sct" />
                        <code value="260373001" />
                        <display value="Detected" />
                    </coding>
                </valueCodeableConcept>
                <interpretation>
                    <coding>
                        <system value="http://terminology.hl7.org/CodeSystem/v3-ObservationInterpretation" />
                        <code value="POS" />
                        <display value="Positive" />
                    </coding>
                </interpretation>
                <specimen>
                    <reference value="Specimen/d592d3c7-f85d-468a-a1a4-1552a2cf1334" />
                </specimen>
            </Observation>
        </resource>
    </entry>
    <entry>
        <fullUrl value="http://example.org/Observation/3052cc76-2770-43d3-812c-d374bd79e19a" />
        <resource>
            <Observation>
                <id value="3052cc76-2770-43d3-812c-d374bd79e19a" />
                <meta>
                    <profile value="http://hl7.org/fhir/us/ph-library/StructureDefinition/us-ph-pregnancy-status-observation" />
                </meta>
                <text>
                    <status value="generated" />
                    <div xmlns="http://www.w3.org/1999/xhtml">This is a simple narrative with only plain text</div>
                </text>
                <status value="final" />
                <category>
                    <coding>
                        <system value="http://terminology.hl7.org/CodeSystem/observation-category" />
                        <code value="social-history" />
                        <display value="Social History" />
                    </coding>
                </category>
                <code>
                    <coding>
                        <system value="http://loinc.org" />
                        <code value="82810-3" />
                        <display value="Pregnancy status" />
                    </coding>
                    <text value="Pregnancy status" />
                </code>
                <subject>
                    <reference value="Patient/c7c69537-6d61-4ce3-8a00-f8d511e44291" />
                </subject>
                <effectiveDateTime value="2024-09-03T03:55:14.641034+00:00" />
                <performer>
                    <reference value="Practitioner/b1f2712f-cf84-48f5-864b-d97da167f166" />
                    <display value="Practitioner" />
                </performer>
                <valueCodeableConcept>
                    <coding>
                        <system value="http://snomed.info/sct" />
                        <code value="60001007" />
                        <display value="Not pregnant (finding)" />
                    </coding>
                    <text value="Not pregnant (finding)" />
                </valueCodeableConcept>
            </Observation>
        </resource>
    </entry>
</Bundle>
