<?xml version="1.0" encoding="UTF-8"?>
<Bundle xmlns="http://hl7.org/fhir">
    <id value="b6be748b-e4d6-4744-8ac9-11e478867881" />
    <meta>
        <profile value="http://hl7.org/fhir/us/ph-library/StructureDefinition/us-ph-content-bundle" />
    </meta>
    <type value="collection" />
    <entry>
        <fullUrl value="http://example.org/Patient/fde363ac-e883-4060-b03a-96168a682deb" />
        <resource>
            <Patient>
                <id value="fde363ac-e883-4060-b03a-96168a682deb" />
                <meta>
                    <profile value="http://hl7.org/fhir/us/ph-library/StructureDefinition/us-ph-patient" />
                </meta>
                <text>
                    <status value="generated" />
                    <div xmlns="http://www.w3.org/1999/xhtml">This is a simple narrative with only plain text</div>
                </text>
                <extension url="http://hl7.org/fhir/us/core/StructureDefinition/us-core-race">
                    <extension url="ombCategory">
                        <valueCoding>
                            <system value="urn:oid:2.16.840.1.113883.6.238" />
                            <code value="2028-9" />
                            <display value="Asian" />
                        </valueCoding>
                    </extension>
                    <extension url="text">
                        <valueString value="Asian" />
                    </extension>
                </extension>
                <extension url="http://hl7.org/fhir/us/core/StructureDefinition/us-core-ethnicity">
                    <extension url="ombCategory">
                        <valueCoding>
                            <system value="urn:oid:2.16.840.1.113883.6.238" />
                            <code value="2186-5" />
                            <display value="Not Hispanic or Latino" />
                        </valueCoding>
                    </extension>
                    <extension url="text">
                        <valueString value="Not Hispanic or Latino" />
                    </extension>
                </extension>
                <identifier>
                    <use value="usual" />
                    <type>
                        <coding>
                            <system value="http://terminology.hl7.org/CodeSystem/v2-0203" />
                            <code value="MR" />
                            <display value="Medical Record Number" />
                        </coding>
                        <text value="Medical Record Number" />
                    </type>
                    <system value="http://hospital.smarthealthit.org" />
                    <value value="129875" />
                </identifier>
                <name>
                    <use value="official" />
                    <family value="Pace" />
                    <given value="Cynthia" />
                    <given value="E" />
                </name>
                <telecom>
                    <system value="phone" />
                    <value value="517-425-1399" />
                    <use value="home" />
                </telecom>
                <gender value="female" />
                <birthDate value="1990-05-22" />
                <deceasedBoolean value="false" />
                <address>
                    <use value="home" />
                    <line value="54665 Meyers Mission Suite 426" />
                    <city value="Donnashire" />
                    <state value="HI" />
                    <country value="US" />
                </address>
                <communication>
                    <language>
                        <coding>
                            <system value="urn:ietf:bcp:47" />
                            <code value="en" />
                            <display value="English" />
                        </coding>
                    </language>
                </communication>
            </Patient>
        </resource>
    </entry>
    <entry>
        <fullUrl value="http://example.org/Observation/d1cb9105-0beb-43a3-b075-4574858faf26" />
        <resource>
            <Observation>
                <id value="d1cb9105-0beb-43a3-b075-4574858faf26" />
                <meta>
                    <profile value="http://hl7.org/fhir/us/core/StructureDefinition/us-core-simple-observation" />
                </meta>
                <text>
                    <status value="generated" />
                    <div xmlns="http://www.w3.org/1999/xhtml">This is a simple narrative with only plain text</div>
                </text>
                <status value="final" />
                <category>
                    <coding>
                        <system value="http://terminology.hl7.org/CodeSystem/observation-category" />
                        <code value="social-history" />
                        <display value="Social History" />
                    </coding>
                </category>
                <code>
                    <coding>
                        <system value="http://loinc.org" />
                        <code value="85736-7" />
                        <display value="Number of sexual partners in last 12 months" />
                    </coding>
                    <text value="Number of sexual partners in last 12 months" />
                </code>
                <subject>
                    <reference value="Patient/fde363ac-e883-4060-b03a-96168a682deb" />
                </subject>
                <effectiveDateTime value="2024-09-03T03:55:13.308692+00:00" />
                <performer>
                    <reference value="Practitioner/952b86e1-ad75-456d-afbf-02af9b1a3905" />
                    <display value="Practitioner" />
                </performer>
                <valueCodeableConcept>
                    <coding>
                        <system value="http://snomed.info/sct" />
                        <code value="228460004" />
                        <display value="Multiple current sexual partners (finding)" />
                    </coding>
                    <text value="Multiple current sexual partners (finding)" />
                </valueCodeableConcept>
            </Observation>
        </resource>
    </entry>
    <entry>
        <fullUrl value="http://example.org/Practitioner/952b86e1-ad75-456d-afbf-02af9b1a3905" />
        <resource>
            <Practitioner>
                <id value="952b86e1-ad75-456d-afbf-02af9b1a3905" />
                <meta>
                    <profile value="http://hl7.org/fhir/us/core/StructureDefinition/us-core-practitioner" />
                </meta>
                <text>
                    <status value="generated" />
                    <div xmlns="http://www.w3.org/1999/xhtml">This is a simple narrative with only plain text</div>
                </text>
                <identifier>
                    <system value="http://hl7.org/fhir/sid/us-npi" />
                    <value value="2048662805" />
                </identifier>
                <name>
                    <use value="official" />
                    <family value="Jones" />
                    <given value="Tamara" />
                </name>
            </Practitioner>
        </resource>
    </entry>
    <entry>
        <fullUrl value="http://example.org/Organization/cb3bfa09-81ba-4253-b6c9-cd45b2dae67b" />
        <resource>
            <Organization>
                <id value="cb3bfa09-81ba-4253-b6c9-cd45b2dae67b" />
                <meta>
                    <profile value="http://hl7.org/fhir/us/ph-library/StructureDefinition/us-ph-organization" />
                </meta>
                <text>
                    <status value="generated" />
                    <div xmlns="http://www.w3.org/1999/xhtml">This is a simple narrative with only plain text</div>
                </text>
                <active value="true" />
                <name value="Hospital E" />
                <telecom>
                    <system value="phone" />
                    <value value="(+1) 734-677-7777" />
                </telecom>
                <address>
                    <use value="work" />
                    <line value="70721 Brittany Pike" />
                    <state value="HI" />
                    <country value="US" />
                </address>
            </Organization>
        </resource>
    </entry>
    <entry>
        <fullUrl value="http://example.org/Encounter/6eb075c3-bfc3-4fca-8c72-b31f11f4a4e7" />
        <resource>
            <Encounter>
                <id value="6eb075c3-bfc3-4fca-8c72-b31f11f4a4e7" />
                <meta>
                    <profile value="http://hl7.org/fhir/us/ph-library/StructureDefinition/us-ph-encounter" />
                </meta>
                <text>
                    <status value="generated" />
                    <div xmlns="http://www.w3.org/1999/xhtml">This is a simple narrative with only plain text</div>
                </text>
                <status value="finished" />
                <class>
                    <system value="http://terminology.hl7.org/CodeSystem/v3-ActCode" />
                    <code value="AMB" />
                    <display value="ambulatory" />
                </class>
                <type>
                    <coding>
                        <system value="http://www.ama-assn.org/go/cpt" />
                        <code value="99213" />
                        <display
                            value="Office or other outpatient visit for the evaluation and management of an established patient, which requires a medically appropriate history and/or examination and low level of medical decision making. When using time for code selection, 20-29 minutes of total time is spent on the date of the encounter."
                         />
                    </coding>
                    <text value="Office Visit" />
                </type>
                <subject>
                    <reference value="Patient/fde363ac-e883-4060-b03a-96168a682deb" />
                </subject>
                <participant>
                    <individual>
                        <reference value="Practitioner/952b86e1-ad75-456d-afbf-02af9b1a3905" />
                    </individual>
                </participant>
                <period>
                    <start value="2024-02-05T22:18:19-04:00" />
                    <end value="2024-05-28T12:58:13-04:00" />
                </period>
                <location>
                    <location>
                        <reference value="Location/d1636409-8269-4758-9130-20daf48d02f6" />
                        <display value="Clinic Bldg A, Salem Medical Center, 4444 Healthcare Drive, Ann Arbor MI, 99999" />
                    </location>
                </location>
                <serviceProvider>
                    <reference value="Organization/cb3bfa09-81ba-4253-b6c9-cd45b2dae67b" />
                </serviceProvider>
            </Encounter>
        </resource>
    </entry>
    <entry>
        <fullUrl value="http://example.org/Location/d1636409-8269-4758-9130-20daf48d02f1" />
        <resource>
            <Location>
                <id value="d1636409-8269-4758-9130-20daf48d02f1" />
                <meta>
                    <profile value="http://hl7.org/fhir/us/ph-library/StructureDefinition/us-ph-location" />
                </meta>
                <text>
                    <status value="generated" />
                    <div xmlns="http://www.w3.org/1999/xhtml">This is a simple narrative with only plain text</div>
                </text>
                <identifier>
                    <system value="http://hl7.org/fhir/sid/us-npi" />
                    <value value="1063494177" />
                </identifier>
                <status value="active" />
                <name value="Clinic Bldg A, Salem Medical Center" />
                <type>
                    <coding>
                        <system value="http://terminology.hl7.org/CodeSystem/v3-RoleCode" />
                        <code value="HOSP" />
                        <display value="Hospital" />
                    </coding>
                </type>
                <telecom>
                    <system value="phone" />
                    <value value="(+1) (555)555-3001" />
                </telecom>
                <telecom>
                    <system value="fax" />
                    <value value="(+1) (555)555-3002" />
                </telecom>
                <telecom>
                    <system value="email" />
                    <value value="mail@smc.org" />
                </telecom>
                <address>
                    <line value="Clinic Bldg A" />
                    <line value="4444 Healthcare Drive" />
                    <city value="Ann Arbor" />
                    <state value="MI" />
                    <postalCode value="99999" />
                </address>
                <managingOrganization>
                    <reference value="Organization/cb3bfa09-81ba-4253-b6c9-cd45b2dae67b" />
                </managingOrganization>
            </Location>
        </resource>
    </entry>
    <entry>
        <fullUrl value="http://example.org/Condition/5bb55e8e-a2f5-4558-8be7-83d6a8ef0065" />
        <resource>
            <Condition>
                <id value="5bb55e8e-a2f5-4558-8be7-83d6a8ef0065" />
                <meta>
                    <profile value="http://hl7.org/fhir/us/ph-library/StructureDefinition/us-ph-condition-encounter-diagnosis" />
                </meta>
                <text>
                    <status value="generated" />
                    <div xmlns="http://www.w3.org/1999/xhtml">This is a simple narrative with only plain text</div>
                </text>
                <clinicalStatus>
                    <coding>
                        <system value="http://terminology.hl7.org/CodeSystem/condition-clinical" />
                        <code value="active" />
                        <display value="Active" />
                    </coding>
                </clinicalStatus>
                <verificationStatus>
                    <coding>
                        <system value="http://terminology.hl7.org/CodeSystem/condition-ver-status" />
                        <code value="confirmed" />
                        <display value="Confirmed" />
                    </coding>
                </verificationStatus>
                <category>
                    <coding>
                        <system value="http://terminology.hl7.org/CodeSystem/condition-category" />
                        <code value="encounter-diagnosis" />
                        <display value="Encounter Diagnosis" />
                    </coding>
                </category>
                <code>
                    <coding>
                        <system value="http://hl7.org/fhir/sid/icd-10-cm" />
                        <code value="A54.03" />
                        <display value="Gonococcal cervicitis, unspecified" />
                    </coding>
                    <text value="Gonococcal cervicitis, unspecified" />
                </code>
                <subject>
                    <reference value="Patient/fde363ac-e883-4060-b03a-96168a682deb" />
                </subject>
                <encounter>
                    <reference value="Encounter/6eb075c3-bfc3-4fca-8c72-b31f11f4a4e7" />
                </encounter>
                <recordedDate value="2024-02-20T23:22:32-04:00" />
            </Condition>
        </resource>
    </entry>
    <entry>
        <fullUrl value="http://example.org/MedicationRequest/1068432f-f634-4a52-a211-c6139af73d1c" />
        <resource>
            <MedicationRequest>
                <id value="1068432f-f634-4a52-a211-c6139af73d1c" />
                <meta>
                    <profile value="http://hl7.org/fhir/us/core/StructureDefinition/us-core-medicationrequest" />
                </meta>
                <text>
                    <status value="generated" />
                    <div xmlns="http://www.w3.org/1999/xhtml">This is a simple narrative with only plain text</div>
                </text>
                <status value="completed" />
                <intent value="order" />
                <medicationCodeableConcept>
                    <coding>
                        <system value="http://www.nlm.nih.gov/research/umls/rxnorm" />
                        <code value="309090" />
                        <display value="ceftriaxone 100 MG/ML Injectable Solution" />
                    </coding>
                    <text value="ceftriaxone 100 MG/ML Injectable Solution" />
                </medicationCodeableConcept>
                <subject>
                    <reference value="Patient/fde363ac-e883-4060-b03a-96168a682deb" />
                </subject>
                <encounter>
                    <reference value="Encounter/6eb075c3-bfc3-4fca-8c72-b31f11f4a4e7" />
                </encounter>
                <authoredOn value="2024-04-07T10:56:31-04:00" />
                <requester>
                    <reference value="Practitioner/952b86e1-ad75-456d-afbf-02af9b1a3905" />
                </requester>
                <reasonCode>
                    <coding>
                        <system value="http://hl7.org/fhir/sid/icd-10-cm" />
                        <code value="A54.03" />
                        <display value="Gonococcal cervicitis, unspecified" />
                    </coding>
                    <text value="Gonococcal cervicitis, unspecified" />
                </reasonCode>
                <reasonCode>
                    <coding>
                        <system value="http://snomed.info/sct" />
                        <code value="236682002" />
                        <display value="Gonococcal urethritis" />
                    </coding>
                    <text value="Gonococcal urethritis" />
                </reasonCode>
                <reasonReference>
                    <reference value="Condition/5bb55e8e-a2f5-4558-8be7-83d6a8ef0065" />
                </reasonReference>
                <dosageInstruction>
                    <text value="IM 500mg/single dose" />
                </dosageInstruction>
            </MedicationRequest>
        </resource>
    </entry>
    <entry>
        <fullUrl value="http://example.org/Specimen/e5345d09-0829-4d1b-bbc6-0e0ab7d213d1" />
        <resource>
            <Specimen>
                <id value="e5345d09-0829-4d1b-bbc6-0e0ab7d213d1" />
                <meta>
                    <profile value="http://hl7.org/fhir/us/ph-library/StructureDefinition/us-ph-specimen" />
                </meta>
                <text>
                    <status value="generated" />
                    <div xmlns="http://www.w3.org/1999/xhtml">This is a simple narrative with only plain text</div>
                </text>
                <type>
                    <coding>
                        <system value="http://terminology.hl7.org/CodeSystem/v2-0487" />
                        <code value="GENV" />
                        <display value="Genital vaginal" />
                    </coding>
                </type>
                <subject>
                    <reference value="Patient/fde363ac-e883-4060-b03a-96168a682deb" />
                </subject>
            </Specimen>
        </resource>
    </entry>
    <entry>
        <fullUrl value="http://example.org/Observation/30c6ea5f-06cb-42a1-9793-7c883d85784b" />
        <resource>
            <Observation>
                <id value="30c6ea5f-06cb-42a1-9793-7c883d85784b" />
                <meta>
                    <profile value="http://hl7.org/fhir/us/ph-library/StructureDefinition/us-ph-lab-result-observation" />
                </meta>
                <text>
                    <status value="generated" />
                    <div xmlns="http://www.w3.org/1999/xhtml">This is a simple narrative with only plain text</div>
                </text>
                <status value="final" />
                <category>
                    <coding>
                        <system value="http://terminology.hl7.org/CodeSystem/observation-category" />
                        <code value="laboratory" />
                        <display value="Laboratory" />
                    </coding>
                </category>
                <code>
                    <coding>
                        <system value="http://loinc.org" />
                        <code value="21415-5" />
                        <display value="Neisseria gonorrhoeae DNA [Presence] in Urethra by NAA with probe detection" />
                    </coding>
                </code>
                <subject>
                    <reference value="Patient/fde363ac-e883-4060-b03a-96168a682deb" />
                </subject>
                <encounter>
                    <reference value="Encounter/6eb075c3-bfc3-4fca-8c72-b31f11f4a4e7" />
                </encounter>
                <effectiveDateTime value="2024-07-04" />
                <performer>
                    <reference value="Practitioner/952b86e1-ad75-456d-afbf-02af9b1a3905" />
                    <display value="Practitioner" />
                </performer>
                <valueCodeableConcept>
                    <coding>
                        <system value="http://snomed.info/sct" />
                        <code value="260373001" />
                        <display value="Detected" />
                    </coding>
                </valueCodeableConcept>
                <interpretation>
                    <coding>
                        <system value="http://terminology.hl7.org/CodeSystem/v3-ObservationInterpretation" />
                        <code value="POS" />
                        <display value="Positive" />
                    </coding>
                </interpretation>
                <specimen>
                    <reference value="Specimen/e5345d09-0829-4d1b-bbc6-0e0ab7d213d1" />
                </specimen>
            </Observation>
        </resource>
    </entry>
    <entry>
        <fullUrl value="http://example.org/Observation/370f99ff-4205-4201-ad67-df52adcad175" />
        <resource>
            <Observation>
                <id value="370f99ff-4205-4201-ad67-df52adcad175" />
                <meta>
                    <profile value="http://hl7.org/fhir/us/ph-library/StructureDefinition/us-ph-pregnancy-status-observation" />
                </meta>
                <text>
                    <status value="generated" />
                    <div xmlns="http://www.w3.org/1999/xhtml">This is a simple narrative with only plain text</div>
                </text>
                <status value="final" />
                <category>
                    <coding>
                        <system value="http://terminology.hl7.org/CodeSystem/observation-category" />
                        <code value="social-history" />
                        <display value="Social History" />
                    </coding>
                </category>
                <code>
                    <coding>
                        <system value="http://loinc.org" />
                        <code value="82810-3" />
                        <display value="Pregnancy status" />
                    </coding>
                    <text value="Pregnancy status" />
                </code>
                <subject>
                    <reference value="Patient/fde363ac-e883-4060-b03a-96168a682deb" />
                </subject>
                <effectiveDateTime value="2024-09-03T03:55:13.310109+00:00" />
                <performer>
                    <reference value="Practitioner/952b86e1-ad75-456d-afbf-02af9b1a3905" />
                    <display value="Practitioner" />
                </performer>
                <valueCodeableConcept>
                    <coding>
                        <system value="http://snomed.info/sct" />
                        <code value="60001007" />
                        <display value="Not pregnant (finding)" />
                    </coding>
                    <text value="Not pregnant (finding)" />
                </valueCodeableConcept>
            </Observation>
        </resource>
    </entry>
</Bundle>
