<?xml version="1.0" encoding="UTF-8"?>
<Bundle xmlns="http://hl7.org/fhir">
    <id value="51e1a7a9-9ad8-46bd-bc1d-fa65d2757cf1" />
    <meta>
        <profile value="http://hl7.org/fhir/us/ph-library/StructureDefinition/us-ph-content-bundle" />
    </meta>
    <type value="collection" />
    <entry>
        <fullUrl value="http://example.org/Patient/782b2e26-5cc9-4d06-9057-ebb3f8d18214" />
        <resource>
            <Patient>
                <id value="782b2e26-5cc9-4d06-9057-ebb3f8d18214" />
                <meta>
                    <profile value="http://hl7.org/fhir/us/core/StructureDefinition/us-core-patient" />
                </meta>
                <text>
                    <status value="generated" />
                    <div xmlns="http://www.w3.org/1999/xhtml">This is a simple narrative with only plain text</div>
                </text>
                <identifier>
                    <use value="usual" />
                    <type>
                        <coding>
                            <system value="http://terminology.hl7.org/CodeSystem/v2-0203" />
                            <code value="MR" />
                            <display value="Medical Record Number" />
                        </coding>
                        <text value="Medical Record Number" />
                    </type>
                    <system value="http://hospital.smarthealthit.org" />
                    <value value="228657" />
                </identifier>
                <name>
                    <use value="official" />
                    <family value="Peach" />
                    <given value="Ginger" />
                </name>
                <telecom>
                    <system value="phone" />
                    <value value="517-425-1399" />
                    <use value="home" />
                </telecom>
                <gender value="female" />
                <birthDate value="1998-03-14" />
                <address>
                    <use value="home" />
                    <line value="16974 Carter Squares" />
                    <city value="South Jeffery" />
                    <state value="VT" />
                    <country value="US" />
                </address>
            </Patient>
        </resource>
    </entry>
    <entry>
        <fullUrl value="http://example.org/Observation/9656b18b-34c6-45d1-8ecf-e9ee9b7badce" />
        <resource>
            <Observation>
                <id value="9656b18b-34c6-45d1-8ecf-e9ee9b7badce" />
                <meta>
                    <profile value="http://hl7.org/fhir/us/core/StructureDefinition/us-core-smokingstatus" />
                </meta>
                <text>
                    <status value="generated" />
                    <div xmlns="http://www.w3.org/1999/xhtml">This is a simple narrative with only plain text</div>
                </text>
                <status value="final" />
                <category>
                    <coding>
                        <system value="http://terminology.hl7.org/CodeSystem/observation-category" />
                        <code value="social-history" />
                        <display value="Social History" />
                    </coding>
                </category>
                <code>
                    <coding>
                        <system value="http://loinc.org" />
                        <code value="72166-2" />
                        <display value="Tobacco smoking status" />
                    </coding>
                    <text value="Tobacco smoking status" />
                </code>
                <subject>
                    <reference value="Patient/782b2e26-5cc9-4d06-9057-ebb3f8d18214" />
                </subject>
                <effectiveDateTime value="2024-09-03T03:55:11.693235+00:00" />
                <performer>
                    <reference value="Practitioner/d6c03673-a863-413a-9f56-91fba4936d15" />
                    <display value="Practitioner" />
                </performer>
                <valueCodeableConcept>
                    <coding>
                        <system value="http://snomed.info/sct" />
                        <code value="8392000" />
                        <display value="Non-smoker (finding)" />
                    </coding>
                    <text value="Non-smoker (finding)" />
                </valueCodeableConcept>
            </Observation>
        </resource>
    </entry>
    <entry>
        <fullUrl value="http://example.org/Practitioner/d6c03673-a863-413a-9f56-91fba4936d15" />
        <resource>
            <Practitioner>
                <id value="d6c03673-a863-413a-9f56-91fba4936d15" />
                <meta>
                    <profile value="http://hl7.org/fhir/us/core/StructureDefinition/us-core-practitioner" />
                </meta>
                <text>
                    <status value="generated" />
                    <div xmlns="http://www.w3.org/1999/xhtml">This is a simple narrative with only plain text</div>
                </text>
                <identifier>
                    <system value="http://hl7.org/fhir/sid/us-npi" />
                    <value value="5669436284" />
                </identifier>
                <name>
                    <use value="official" />
                    <family value="Duran" />
                    <given value="George" />
                </name>
            </Practitioner>
        </resource>
    </entry>
    <entry>
        <fullUrl value="http://example.org/Organization/3e8d7a51-eab1-4d8a-9df8-04595ca1cda2" />
        <resource>
            <Organization>
                <id value="3e8d7a51-eab1-4d8a-9df8-04595ca1cda2" />
                <meta>
                    <profile value="http://hl7.org/fhir/us/ph-library/StructureDefinition/us-ph-organization" />
                </meta>
                <text>
                    <status value="generated" />
                    <div xmlns="http://www.w3.org/1999/xhtml">This is a simple narrative with only plain text</div>
                </text>
                <active value="true" />
                <name value="Hospital D" />
                <telecom>
                    <system value="phone" />
                    <value value="(+1) 734-677-7777" />
                </telecom>
                <address>
                    <use value="work" />
                    <line value="4171 Young Expressway Suite 203" />
                    <state value="VT" />
                    <country value="US" />
                </address>
            </Organization>
        </resource>
    </entry>
    <entry>
        <fullUrl value="http://example.org/Encounter/ec0b27ad-5cd7-4604-9b07-52c528461b92" />
        <resource>
            <Encounter>
                <id value="ec0b27ad-5cd7-4604-9b07-52c528461b92" />
                <meta>
                    <profile value="http://hl7.org/fhir/us/ph-library/StructureDefinition/us-ph-encounter" />
                </meta>
                <text>
                    <status value="generated" />
                    <div xmlns="http://www.w3.org/1999/xhtml">This is a simple narrative with only plain text</div>
                </text>
                <status value="finished" />
                <class>
                    <system value="http://terminology.hl7.org/CodeSystem/v3-ActCode" />
                    <code value="AMB" />
                    <display value="ambulatory" />
                </class>
                <type>
                    <coding>
                        <system value="http://www.ama-assn.org/go/cpt" />
                        <code value="99213" />
                        <display
                            value="Office or other outpatient visit for the evaluation and management of an established patient, which requires a medically appropriate history and/or examination and low level of medical decision making. When using time for code selection, 20-29 minutes of total time is spent on the date of the encounter."
                         />
                    </coding>
                    <text value="Office Visit" />
                </type>
                <subject>
                    <reference value="Patient/782b2e26-5cc9-4d06-9057-ebb3f8d18214" />
                </subject>
                <participant>
                    <individual>
                        <reference value="Practitioner/d6c03673-a863-413a-9f56-91fba4936d15" />
                    </individual>
                </participant>
                <period>
                    <start value="2024-01-05T17:33:32-04:00" />
                    <end value="2024-05-06T00:36:01-04:00" />
                </period>
                <location>
                    <location>
                        <reference value="Location/d1636409-8269-4758-9130-20daf48d02f6" />
                        <display value="Clinic Bldg A, Salem Medical Center, 4444 Healthcare Drive, Ann Arbor MI, 99999" />
                    </location>
                </location>
                <serviceProvider>
                    <reference value="Organization/3e8d7a51-eab1-4d8a-9df8-04595ca1cda2" />
                </serviceProvider>
            </Encounter>
        </resource>
    </entry>
    <entry>
        <fullUrl value="http://example.org/Location/d1636409-8269-4758-9130-20daf48d02f1" />
        <resource>
            <Location>
                <id value="d1636409-8269-4758-9130-20daf48d02f1" />
                <meta>
                    <profile value="http://hl7.org/fhir/us/ph-library/StructureDefinition/us-ph-location" />
                </meta>
                <text>
                    <status value="generated" />
                    <div xmlns="http://www.w3.org/1999/xhtml">This is a simple narrative with only plain text</div>
                </text>
                <identifier>
                    <system value="http://hl7.org/fhir/sid/us-npi" />
                    <value value="1063494177" />
                </identifier>
                <status value="active" />
                <name value="Clinic Bldg A, Salem Medical Center" />
                <type>
                    <coding>
                        <system value="http://terminology.hl7.org/CodeSystem/v3-RoleCode" />
                        <code value="HOSP" />
                        <display value="Hospital" />
                    </coding>
                </type>
                <telecom>
                    <system value="phone" />
                    <value value="(+1) (555)555-3001" />
                </telecom>
                <telecom>
                    <system value="fax" />
                    <value value="(+1) (555)555-3002" />
                </telecom>
                <telecom>
                    <system value="email" />
                    <value value="mail@smc.org" />
                </telecom>
                <address>
                    <line value="Clinic Bldg A" />
                    <line value="4444 Healthcare Drive" />
                    <city value="Ann Arbor" />
                    <state value="MI" />
                    <postalCode value="99999" />
                </address>
                <managingOrganization>
                    <reference value="Organization/3e8d7a51-eab1-4d8a-9df8-04595ca1cda2" />
                </managingOrganization>
            </Location>
        </resource>
    </entry>
    <entry>
        <fullUrl value="http://example.org/Condition/cbca62ef-fbf4-4799-9f79-8a82da5171f8" />
        <resource>
            <Condition>
                <id value="cbca62ef-fbf4-4799-9f79-8a82da5171f8" />
                <meta>
                    <profile value="http://hl7.org/fhir/us/ph-library/StructureDefinition/us-ph-condition-encounter-diagnosis" />
                </meta>
                <text>
                    <status value="generated" />
                    <div xmlns="http://www.w3.org/1999/xhtml">This is a simple narrative with only plain text</div>
                </text>
                <clinicalStatus>
                    <coding>
                        <system value="http://terminology.hl7.org/CodeSystem/condition-clinical" />
                        <code value="active" />
                        <display value="Active" />
                    </coding>
                </clinicalStatus>
                <verificationStatus>
                    <coding>
                        <system value="http://terminology.hl7.org/CodeSystem/condition-ver-status" />
                        <code value="confirmed" />
                        <display value="Confirmed" />
                    </coding>
                </verificationStatus>
                <category>
                    <coding>
                        <system value="http://terminology.hl7.org/CodeSystem/condition-category" />
                        <code value="encounter-diagnosis" />
                        <display value="Encounter Diagnosis" />
                    </coding>
                </category>
                <code>
                    <coding>
                        <system value="http://hl7.org/fhir/sid/icd-10-cm" />
                        <code value="A54.03" />
                        <display value="Gonococcal cervicitis, unspecified" />
                    </coding>
                    <text value="Gonococcal cervicitis, unspecified" />
                </code>
                <subject>
                    <reference value="Patient/782b2e26-5cc9-4d06-9057-ebb3f8d18214" />
                </subject>
                <encounter>
                    <reference value="Encounter/ec0b27ad-5cd7-4604-9b07-52c528461b92" />
                </encounter>
                <recordedDate value="2024-05-06T19:08:18-04:00" />
            </Condition>
        </resource>
    </entry>
    <entry>
        <fullUrl value="http://example.org/MedicationRequest/4832cb14-1ed9-4a75-9c4d-d0a708e3579f" />
        <resource>
            <MedicationRequest>
                <id value="4832cb14-1ed9-4a75-9c4d-d0a708e3579f" />
                <meta>
                    <profile value="http://hl7.org/fhir/us/core/StructureDefinition/us-core-medicationrequest" />
                </meta>
                <text>
                    <status value="generated" />
                    <div xmlns="http://www.w3.org/1999/xhtml">This is a simple narrative with only plain text</div>
                </text>
                <status value="completed" />
                <intent value="order" />
                <medicationCodeableConcept>
                    <coding>
                        <system value="http://www.nlm.nih.gov/research/umls/rxnorm" />
                        <code value="309090" />
                        <display value="ceftriaxone 100 MG/ML Injectable Solution" />
                    </coding>
                    <text value="ceftriaxone 100 MG/ML Injectable Solution" />
                </medicationCodeableConcept>
                <subject>
                    <reference value="Patient/782b2e26-5cc9-4d06-9057-ebb3f8d18214" />
                </subject>
                <encounter>
                    <reference value="Encounter/ec0b27ad-5cd7-4604-9b07-52c528461b92" />
                </encounter>
                <authoredOn value="2024-05-02T17:49:29-04:00" />
                <requester>
                    <reference value="Practitioner/d6c03673-a863-413a-9f56-91fba4936d15" />
                </requester>
                <reasonCode>
                    <coding>
                        <system value="http://hl7.org/fhir/sid/icd-10-cm" />
                        <code value="A54.03" />
                        <display value="Gonococcal cervicitis, unspecified" />
                    </coding>
                    <text value="Gonococcal cervicitis, unspecified" />
                </reasonCode>
                <reasonCode>
                    <coding>
                        <system value="http://snomed.info/sct" />
                        <code value="236682002" />
                        <display value="Gonococcal urethritis" />
                    </coding>
                    <text value="Gonococcal urethritis" />
                </reasonCode>
                <reasonReference>
                    <reference value="Condition/cbca62ef-fbf4-4799-9f79-8a82da5171f8" />
                </reasonReference>
                <dosageInstruction>
                    <text value="IM 500mg/single dose" />
                </dosageInstruction>
            </MedicationRequest>
        </resource>
    </entry>
    <entry>
        <fullUrl value="http://example.org/Specimen/c589367d-320d-4f97-8001-5b5838c8a622" />
        <resource>
            <Specimen>
                <id value="c589367d-320d-4f97-8001-5b5838c8a622" />
                <meta>
                    <profile value="http://hl7.org/fhir/us/ph-library/StructureDefinition/us-ph-specimen" />
                </meta>
                <text>
                    <status value="generated" />
                    <div xmlns="http://www.w3.org/1999/xhtml">This is a simple narrative with only plain text</div>
                </text>
                <type>
                    <coding>
                        <system value="http://terminology.hl7.org/CodeSystem/v2-0487" />
                        <code value="GENV" />
                        <display value="Genital vaginal" />
                    </coding>
                </type>
                <subject>
                    <reference value="Patient/782b2e26-5cc9-4d06-9057-ebb3f8d18214" />
                </subject>
            </Specimen>
        </resource>
    </entry>
    <entry>
        <fullUrl value="http://example.org/Observation/d8e92c62-9232-4e4e-8e48-ea52dcfb10df" />
        <resource>
            <Observation>
                <id value="d8e92c62-9232-4e4e-8e48-ea52dcfb10df" />
                <meta>
                    <profile value="http://hl7.org/fhir/us/ph-library/StructureDefinition/us-ph-lab-result-observation" />
                </meta>
                <text>
                    <status value="generated" />
                    <div xmlns="http://www.w3.org/1999/xhtml">This is a simple narrative with only plain text</div>
                </text>
                <status value="final" />
                <category>
                    <coding>
                        <system value="http://terminology.hl7.org/CodeSystem/observation-category" />
                        <code value="laboratory" />
                        <display value="Laboratory" />
                    </coding>
                </category>
                <code>
                    <coding>
                        <system value="http://loinc.org" />
                        <code value="21415-5" />
                        <display value="Neisseria gonorrhoeae DNA [Presence] in Urethra by NAA with probe detection" />
                    </coding>
                </code>
                <subject>
                    <reference value="Patient/782b2e26-5cc9-4d06-9057-ebb3f8d18214" />
                </subject>
                <encounter>
                    <reference value="Encounter/ec0b27ad-5cd7-4604-9b07-52c528461b92" />
                </encounter>
                <effectiveDateTime value="2024-07-03" />
                <performer>
                    <reference value="Practitioner/d6c03673-a863-413a-9f56-91fba4936d15" />
                    <display value="Practitioner" />
                </performer>
                <valueCodeableConcept>
                    <coding>
                        <system value="http://snomed.info/sct" />
                        <code value="260373001" />
                        <display value="Detected" />
                    </coding>
                </valueCodeableConcept>
                <interpretation>
                    <coding>
                        <system value="http://terminology.hl7.org/CodeSystem/v3-ObservationInterpretation" />
                        <code value="POS" />
                        <display value="Positive" />
                    </coding>
                </interpretation>
                <specimen>
                    <reference value="Specimen/c589367d-320d-4f97-8001-5b5838c8a622" />
                </specimen>
            </Observation>
        </resource>
    </entry>
    <entry>
        <fullUrl value="http://example.org/Observation/df07fa4b-9f61-47ce-adcb-3f11870313c0" />
        <resource>
            <Observation>
                <id value="df07fa4b-9f61-47ce-adcb-3f11870313c0" />
                <meta>
                    <profile value="http://hl7.org/fhir/us/ph-library/StructureDefinition/us-ph-pregnancy-status-observation" />
                </meta>
                <text>
                    <status value="generated" />
                    <div xmlns="http://www.w3.org/1999/xhtml">This is a simple narrative with only plain text</div>
                </text>
                <status value="final" />
                <category>
                    <coding>
                        <system value="http://terminology.hl7.org/CodeSystem/observation-category" />
                        <code value="social-history" />
                        <display value="Social History" />
                    </coding>
                </category>
                <code>
                    <coding>
                        <system value="http://loinc.org" />
                        <code value="82810-3" />
                        <display value="Pregnancy status" />
                    </coding>
                    <text value="Pregnancy status" />
                </code>
                <subject>
                    <reference value="Patient/782b2e26-5cc9-4d06-9057-ebb3f8d18214" />
                </subject>
                <effectiveDateTime value="2024-09-03T03:55:11.697296+00:00" />
                <performer>
                    <reference value="Practitioner/d6c03673-a863-413a-9f56-91fba4936d15" />
                    <display value="Practitioner" />
                </performer>
                <valueCodeableConcept>
                    <coding>
                        <system value="http://snomed.info/sct" />
                        <code value="77386006" />
                        <display value="Pregnancy (finding)" />
                    </coding>
                    <text value="Pregnancy (finding)" />
                </valueCodeableConcept>
            </Observation>
        </resource>
    </entry>
</Bundle>
