<?xml version="1.0" encoding="UTF-8"?>
<Bundle xmlns="http://hl7.org/fhir">
    <id value="963f5af9-2001-41f2-a06c-0d0a731030df" />
    <meta>
        <profile value="http://hl7.org/fhir/us/ph-library/StructureDefinition/us-ph-content-bundle" />
    </meta>
    <type value="collection" />
    <entry>
        <fullUrl value="http://example.org/Patient/9433c2c7-e0d9-48ec-82cb-6bc2296132b0" />
        <resource>
            <Patient>
                <id value="9433c2c7-e0d9-48ec-82cb-6bc2296132b0" />
                <meta>
                    <profile value="http://hl7.org/fhir/us/ph-library/StructureDefinition/us-ph-patient" />
                </meta>
                <text>
                    <status value="generated" />
                    <div xmlns="http://www.w3.org/1999/xhtml">This is a simple narrative with only plain text</div>
                </text>
                <extension url="http://hl7.org/fhir/us/core/StructureDefinition/us-core-race">
                    <extension url="ombCategory">
                        <valueCoding>
                            <system value="urn:oid:2.16.840.1.113883.6.238" />
                            <code value="1002-5" />
                            <display value="American Indian or Alaska Native" />
                        </valueCoding>
                    </extension>
                    <extension url="text">
                        <valueString value="American Indian or Alaska Native" />
                    </extension>
                </extension>
                <extension url="http://hl7.org/fhir/us/core/StructureDefinition/us-core-ethnicity">
                    <extension url="ombCategory">
                        <valueCoding>
                            <system value="urn:oid:2.16.840.1.113883.6.238" />
                            <code value="2186-5" />
                            <display value="Not Hispanic or Latino" />
                        </valueCoding>
                    </extension>
                    <extension url="text">
                        <valueString value="Not Hispanic or Latino" />
                    </extension>
                </extension>
                <identifier>
                    <use value="usual" />
                    <type>
                        <coding>
                            <system value="http://terminology.hl7.org/CodeSystem/v2-0203" />
                            <code value="MR" />
                            <display value="Medical Record Number" />
                        </coding>
                        <text value="Medical Record Number" />
                    </type>
                    <system value="http://hospital.smarthealthit.org" />
                    <value value="564570" />
                </identifier>
                <name>
                    <use value="official" />
                    <family value="Peterson" />
                    <given value="Amy" />
                    <given value="V" />
                </name>
                <telecom>
                    <system value="phone" />
                    <value value="517-425-1399" />
                    <use value="home" />
                </telecom>
                <gender value="female" />
                <birthDate value="1982-07-23" />
                <deceasedBoolean value="false" />
                <address>
                    <use value="home" />
                    <line value="49 Meadow St Mounds OK" />
                    <city value="St. Mounds" />
                    <state value="OK" />
                    <country value="US" />
                </address>
                <communication>
                    <language>
                        <coding>
                            <system value="urn:ietf:bcp:47" />
                            <code value="en" />
                            <display value="English" />
                        </coding>
                    </language>
                </communication>
            </Patient>
        </resource>
    </entry>
    <entry>
        <fullUrl value="http://example.org/Observation/0420bf6f-beb8-4e56-88d1-1869087a36f5" />
        <resource>
            <Observation>
                <id value="0420bf6f-beb8-4e56-88d1-1869087a36f5" />
                <meta>
                    <profile value="http://hl7.org/fhir/us/core/StructureDefinition/us-core-smokingstatus" />
                </meta>
                <text>
                    <status value="generated" />
                    <div xmlns="http://www.w3.org/1999/xhtml">This is a simple narrative with only plain text</div>
                </text>
                <status value="final" />
                <category>
                    <coding>
                        <system value="http://terminology.hl7.org/CodeSystem/observation-category" />
                        <code value="social-history" />
                        <display value="Social History" />
                    </coding>
                </category>
                <code>
                    <coding>
                        <system value="http://loinc.org" />
                        <code value="72166-2" />
                        <display value="Tobacco smoking status" />
                    </coding>
                    <text value="Tobacco smoking status" />
                </code>
                <subject>
                    <reference value="Patient/9433c2c7-e0d9-48ec-82cb-6bc2296132b0" />
                </subject>
                <effectiveDateTime value="2024-09-03T03:55:08.392293+00:00" />
                <performer>
                    <reference value="Practitioner/43278beb-6ca5-493c-8b7f-2b2b5cb4c994" />
                    <display value="Practitioner" />
                </performer>
                <valueCodeableConcept>
                    <coding>
                        <system value="http://snomed.info/sct" />
                        <code value="8392000" />
                        <display value="Non-smoker (finding)" />
                    </coding>
                    <text value="Non-smoker (finding)" />
                </valueCodeableConcept>
            </Observation>
        </resource>
    </entry>
    <entry>
        <fullUrl value="http://example.org/Practitioner/43278beb-6ca5-493c-8b7f-2b2b5cb4c994" />
        <resource>
            <Practitioner>
                <id value="43278beb-6ca5-493c-8b7f-2b2b5cb4c994" />
                <meta>
                    <profile value="http://hl7.org/fhir/us/core/StructureDefinition/us-core-practitioner" />
                </meta>
                <text>
                    <status value="generated" />
                    <div xmlns="http://www.w3.org/1999/xhtml">This is a simple narrative with only plain text</div>
                </text>
                <identifier>
                    <system value="http://hl7.org/fhir/sid/us-npi" />
                    <value value="5031205565" />
                </identifier>
                <name>
                    <use value="official" />
                    <family value="Taylor" />
                    <given value="Vincent" />
                </name>
            </Practitioner>
        </resource>
    </entry>
    <entry>
        <fullUrl value="http://example.org/Organization/46281dcd-e59e-48f1-a4c2-776b5336e762" />
        <resource>
            <Organization>
                <id value="46281dcd-e59e-48f1-a4c2-776b5336e762" />
                <meta>
                    <profile value="http://hl7.org/fhir/us/ph-library/StructureDefinition/us-ph-organization" />
                </meta>
                <text>
                    <status value="generated" />
                    <div xmlns="http://www.w3.org/1999/xhtml">This is a simple narrative with only plain text</div>
                </text>
                <active value="true" />
                <name value="Hospital A" />
                <telecom>
                    <system value="phone" />
                    <value value="(+1) 734-677-7777" />
                </telecom>
                <address>
                    <use value="work" />
                    <line value="035 Heath Spring Apt. 267" />
                    <state value="MD" />
                    <country value="US" />
                </address>
            </Organization>
        </resource>
    </entry>
    <entry>
        <fullUrl value="http://example.org/Encounter/e0e41b21-b08d-455c-aafa-4e37db69e6a3" />
        <resource>
            <Encounter>
                <id value="e0e41b21-b08d-455c-aafa-4e37db69e6a3" />
                <meta>
                    <profile value="http://hl7.org/fhir/us/ph-library/StructureDefinition/us-ph-encounter" />
                </meta>
                <text>
                    <status value="generated" />
                    <div xmlns="http://www.w3.org/1999/xhtml">This is a simple narrative with only plain text</div>
                </text>
                <status value="finished" />
                <class>
                    <system value="http://terminology.hl7.org/CodeSystem/v3-ActCode" />
                    <code value="AMB" />
                    <display value="ambulatory" />
                </class>
                <type>
                    <coding>
                        <system value="http://www.ama-assn.org/go/cpt" />
                        <code value="99213" />
                        <display
                            value="Office or other outpatient visit for the evaluation and management of an established patient, which requires a medically appropriate history and/or examination and low level of medical decision making. When using time for code selection, 20-29 minutes of total time is spent on the date of the encounter."
                         />
                    </coding>
                    <text value="Office Visit" />
                </type>
                <subject>
                    <reference value="Patient/9433c2c7-e0d9-48ec-82cb-6bc2296132b0" />
                </subject>
                <participant>
                    <individual>
                        <reference value="Practitioner/43278beb-6ca5-493c-8b7f-2b2b5cb4c994" />
                    </individual>
                </participant>
                <period>
                    <start value="2024-06-19T13:55:40-04:00" />
                    <end value="2024-06-19T17:38:54-04:00" />
                </period>
                <location>
                    <location>
                        <reference value="Location/d1636409-8269-4758-9130-20daf48d02f6" />
                        <display value="Clinic Bldg A, Salem Medical Center, 4444 Healthcare Drive, Ann Arbor MI, 99999" />
                    </location>
                </location>
                <serviceProvider>
                    <reference value="Organization/46281dcd-e59e-48f1-a4c2-776b5336e762" />
                </serviceProvider>
            </Encounter>
        </resource>
    </entry>
    <entry>
        <fullUrl value="http://example.org/Location/d1636409-8269-4758-9130-20daf48d02f1" />
        <resource>
            <Location>
                <id value="d1636409-8269-4758-9130-20daf48d02f1" />
                <meta>
                    <profile value="http://hl7.org/fhir/us/ph-library/StructureDefinition/us-ph-location" />
                </meta>
                <text>
                    <status value="generated" />
                    <div xmlns="http://www.w3.org/1999/xhtml">This is a simple narrative with only plain text</div>
                </text>
                <identifier>
                    <system value="http://hl7.org/fhir/sid/us-npi" />
                    <value value="1063494177" />
                </identifier>
                <status value="active" />
                <name value="Clinic Bldg A, Salem Medical Center" />
                <type>
                    <coding>
                        <system value="http://terminology.hl7.org/CodeSystem/v3-RoleCode" />
                        <code value="HOSP" />
                        <display value="Hospital" />
                    </coding>
                </type>
                <telecom>
                    <system value="phone" />
                    <value value="(+1) (555)555-3001" />
                </telecom>
                <telecom>
                    <system value="fax" />
                    <value value="(+1) (555)555-3002" />
                </telecom>
                <telecom>
                    <system value="email" />
                    <value value="mail@smc.org" />
                </telecom>
                <address>
                    <line value="Clinic Bldg A" />
                    <line value="4444 Healthcare Drive" />
                    <city value="Ann Arbor" />
                    <state value="MI" />
                    <postalCode value="99999" />
                </address>
                <managingOrganization>
                    <reference value="Organization/46281dcd-e59e-48f1-a4c2-776b5336e762" />
                </managingOrganization>
            </Location>
        </resource>
    </entry>
    <entry>
        <fullUrl value="http://example.org/Condition/83e80b64-0573-4c78-9692-16cb95a5116b" />
        <resource>
            <Condition>
                <id value="83e80b64-0573-4c78-9692-16cb95a5116b" />
                <meta>
                    <profile value="http://hl7.org/fhir/us/ph-library/StructureDefinition/us-ph-condition-encounter-diagnosis" />
                </meta>
                <text>
                    <status value="generated" />
                    <div xmlns="http://www.w3.org/1999/xhtml">This is a simple narrative with only plain text</div>
                </text>
                <clinicalStatus>
                    <coding>
                        <system value="http://terminology.hl7.org/CodeSystem/condition-clinical" />
                        <code value="active" />
                        <display value="Active" />
                    </coding>
                </clinicalStatus>
                <verificationStatus>
                    <coding>
                        <system value="http://terminology.hl7.org/CodeSystem/condition-ver-status" />
                        <code value="confirmed" />
                        <display value="Confirmed" />
                    </coding>
                </verificationStatus>
                <category>
                    <coding>
                        <system value="http://terminology.hl7.org/CodeSystem/condition-category" />
                        <code value="encounter-diagnosis" />
                        <display value="Encounter Diagnosis" />
                    </coding>
                </category>
                <code>
                    <coding>
                        <system value="http://hl7.org/fhir/sid/icd-10-cm" />
                        <code value="A55" />
                        <display value="Chlamydial lymphogranuloma (venereum)" />
                    </coding>
                    <text value="Chlamydial lymphogranuloma (venereum)" />
                </code>
                <subject>
                    <reference value="Patient/9433c2c7-e0d9-48ec-82cb-6bc2296132b0" />
                </subject>
                <encounter>
                    <reference value="Encounter/e0e41b21-b08d-455c-aafa-4e37db69e6a3" />
                </encounter>
                <recordedDate value="2024-06-30T01:00:10-04:00" />
            </Condition>
        </resource>
    </entry>
    <entry>
        <fullUrl value="http://example.org/MedicationRequest/c6862b66-ac20-490c-97f4-df0e7ce4759b" />
        <resource>
            <MedicationRequest>
                <id value="c6862b66-ac20-490c-97f4-df0e7ce4759b" />
                <meta>
                    <profile value="http://hl7.org/fhir/us/core/StructureDefinition/us-core-medicationrequest" />
                </meta>
                <text>
                    <status value="generated" />
                    <div xmlns="http://www.w3.org/1999/xhtml">This is a simple narrative with only plain text</div>
                </text>
                <status value="completed" />
                <intent value="order" />
                <medicationCodeableConcept>
                    <coding>
                        <system value="http://www.nlm.nih.gov/research/umls/rxnorm" />
                        <code value="308460" />
                        <display value="azithromycin 250 MG Oral Tablet" />
                    </coding>
                    <text value="azithromycin 250 MG Oral Tablet" />
                </medicationCodeableConcept>
                <subject>
                    <reference value="Patient/9433c2c7-e0d9-48ec-82cb-6bc2296132b0" />
                </subject>
                <encounter>
                    <reference value="Encounter/e0e41b21-b08d-455c-aafa-4e37db69e6a3" />
                </encounter>
                <authoredOn value="2024-01-08T03:23:48-04:00" />
                <requester>
                    <reference value="Practitioner/43278beb-6ca5-493c-8b7f-2b2b5cb4c994" />
                </requester>
                <reasonCode>
                    <coding>
                        <system value="http://hl7.org/fhir/sid/icd-10-cm" />
                        <code value="A55" />
                        <display value="Chlamydial lymphogranuloma (venereum)" />
                    </coding>
                    <text value="Chlamydial lymphogranuloma (venereum)" />
                </reasonCode>
                <reasonCode>
                    <coding>
                        <system value="http://snomed.info/sct" />
                        <code value="240589008" />
                        <display value="Chlamydia trachomatis infection (disorder)" />
                    </coding>
                    <text value="Chlamydia trachomatis infection (disorder)" />
                </reasonCode>
                <reasonReference>
                    <reference value="Condition/83e80b64-0573-4c78-9692-16cb95a5116b" />
                </reasonReference>
                <dosageInstruction>
                    <text value="Oral 250 MG / 1 each" />
                </dosageInstruction>
            </MedicationRequest>
        </resource>
    </entry>
    <entry>
        <fullUrl value="http://example.org/Specimen/f699e2ce-dad0-4d07-9cd6-de4f14983469" />
        <resource>
            <Specimen>
                <id value="f699e2ce-dad0-4d07-9cd6-de4f14983469" />
                <meta>
                    <profile value="http://hl7.org/fhir/us/ph-library/StructureDefinition/us-ph-specimen" />
                </meta>
                <text>
                    <status value="generated" />
                    <div xmlns="http://www.w3.org/1999/xhtml">This is a simple narrative with only plain text</div>
                </text>
                <type>
                    <coding>
                        <system value="http://terminology.hl7.org/CodeSystem/v2-0487" />
                        <code value="BLD" />
                        <display value="Whole blood" />
                    </coding>
                </type>
                <subject>
                    <reference value="Patient/9433c2c7-e0d9-48ec-82cb-6bc2296132b0" />
                </subject>
            </Specimen>
        </resource>
    </entry>
    <entry>
        <fullUrl value="http://example.org/Observation/c81bd566-3108-47e9-bd19-f7ef3477b010" />
        <resource>
            <Observation>
                <id value="c81bd566-3108-47e9-bd19-f7ef3477b010" />
                <meta>
                    <profile value="http://hl7.org/fhir/us/ph-library/StructureDefinition/us-ph-lab-result-observation" />
                </meta>
                <text>
                    <status value="generated" />
                    <div xmlns="http://www.w3.org/1999/xhtml">This is a simple narrative with only plain text</div>
                </text>
                <status value="final" />
                <category>
                    <coding>
                        <system value="http://terminology.hl7.org/CodeSystem/observation-category" />
                        <code value="laboratory" />
                        <display value="Laboratory" />
                    </coding>
                </category>
                <code>
                    <coding>
                        <system value="http://loinc.org" />
                        <code value="31768-5" />
                        <display value="Chlamydia trachomatis Ag [Presence] in Blood" />
                    </coding>
                </code>
                <subject>
                    <reference value="Patient/9433c2c7-e0d9-48ec-82cb-6bc2296132b0" />
                </subject>
                <encounter>
                    <reference value="Encounter/e0e41b21-b08d-455c-aafa-4e37db69e6a3" />
                </encounter>
                <effectiveDateTime value="2024-06-30" />
                <performer>
                    <reference value="Practitioner/43278beb-6ca5-493c-8b7f-2b2b5cb4c994" />
                    <display value="Practitioner" />
                </performer>
                <valueCodeableConcept>
                    <coding>
                        <system value="http://snomed.info/sct" />
                        <code value="260373001" />
                        <display value="Detected" />
                    </coding>
                </valueCodeableConcept>
                <interpretation>
                    <coding>
                        <system value="http://terminology.hl7.org/CodeSystem/v3-ObservationInterpretation" />
                        <code value="POS" />
                        <display value="Positive" />
                    </coding>
                </interpretation>
                <specimen>
                    <reference value="Specimen/f699e2ce-dad0-4d07-9cd6-de4f14983469" />
                </specimen>
            </Observation>
        </resource>
    </entry>
    <entry>
        <fullUrl value="http://example.org/Observation/748fffcf-2d61-4fcf-b7de-726f5efb74ef" />
        <resource>
            <Observation>
                <id value="748fffcf-2d61-4fcf-b7de-726f5efb74ef" />
                <meta>
                    <profile value="http://hl7.org/fhir/us/ph-library/StructureDefinition/us-ph-pregnancy-status-observation" />
                </meta>
                <text>
                    <status value="generated" />
                    <div xmlns="http://www.w3.org/1999/xhtml">This is a simple narrative with only plain text</div>
                </text>
                <status value="final" />
                <category>
                    <coding>
                        <system value="http://terminology.hl7.org/CodeSystem/observation-category" />
                        <code value="social-history" />
                        <display value="Social History" />
                    </coding>
                </category>
                <code>
                    <coding>
                        <system value="http://loinc.org" />
                        <code value="82810-3" />
                        <display value="Pregnancy status" />
                    </coding>
                    <text value="Pregnancy status" />
                </code>
                <subject>
                    <reference value="Patient/9433c2c7-e0d9-48ec-82cb-6bc2296132b0" />
                </subject>
                <effectiveDateTime value="2024-09-03T03:55:08.395364+00:00" />
                <performer>
                    <reference value="Practitioner/43278beb-6ca5-493c-8b7f-2b2b5cb4c994" />
                    <display value="Practitioner" />
                </performer>
                <valueCodeableConcept>
                    <coding>
                        <system value="http://snomed.info/sct" />
                        <code value="60001007" />
                        <display value="Not pregnant (finding)" />
                    </coding>
                    <text value="Not pregnant (finding)" />
                </valueCodeableConcept>
            </Observation>
        </resource>
    </entry>
</Bundle>
